# ts wx wy wz ax ay az
1560738505.003178596497 0.335917103249 0.117463600413 -0.561577402723 -0.111125160333 1.137928895166 -10.346986477123
1560738505.013178586960 0.223701915582 0.186900127430 -0.595335169775 -0.222639999805 1.854949300976 -10.029001154139
1560738505.023178577423 0.241640776348 0.189333635798 -0.622432434498 0.187917566625 2.144495695162 -10.145109326398
1560738505.033178567886 0.319023048665 0.178141037066 -0.631837891080 -0.111103116243 1.774428579463 -10.204061000804
1560738505.043178558350 0.389612291200 0.136398593214 -0.642021677605 0.439698877425 2.103683392794 -9.704036997278
1560738505.053178548813 0.425255407305 0.058328378318 -0.684582432537 0.426306336858 1.571260138889 -10.001166100320
1560738505.063178539276 0.449005180805 0.008687180807 -0.715221352030 -0.264299780890 2.196772731358 -10.443457511612
1560738505.073178529739 0.483857088548 -0.039309699973 -0.759655701853 0.183170743570 1.586879176113 -10.078446199242
1560738505.083178520203 0.470730014201 -0.089992821309 -0.804988400124 0.126519088943 1.442758748720 -9.696797067745
1560738505.093178510666 0.441152803190 -0.118130072295 -0.836133552729 -0.194426871551 2.070282744994 -10.085887498779
1560738505.103178501129 0.423842471428 -0.122627977863 -0.861747393216 0.205359712832 1.291560878423 -9.587623370473
1560738505.113178491592 0.347715776714 -0.109042375519 -0.873870988646 0.387039734605 1.952566774814 -9.632351197512
1560738505.123178482056 0.323110190100 -0.087930242638 -0.904500317897 -0.204197659340 1.634090570767 -10.341641042957
1560738505.133178472519 0.293359537555 -0.034124057276 -0.923335174779 -0.004183919647 1.445220730127 -10.124674860270
1560738505.143178462982 0.242737106202 0.018496549581 -0.952115261203 -0.067948306120 1.933501140505 -10.008192462111
1560738505.153178453445 0.218277133528 0.045283135067 -0.986559760143 -0.512098895063 0.837707077647 -10.480858578083
1560738505.163178443909 0.171492942769 0.109202057352 -1.005117028888 0.023098036290 2.006357137465 -9.741143927198
1560738505.173178434372 0.170858530417 0.083168365114 -1.020613196755 0.484527580073 1.523786829506 -9.884032485613
1560738505.183178424835 0.146990563114 0.089078890923 -1.034434941373 -0.153958935754 1.819145377945 -10.367959081577
1560738505.193178415298 0.139105217044 0.083226489151 -1.077191169251 -0.131483201760 1.799606932870 -10.164311196389
1560738505.203178405762 0.104227776824 0.055249519980 -1.125685552590 0.357508003808 1.377379285528 -9.811855749589
1560738505.213178396225 0.051573972704 0.059040307120 -1.144887477382 -0.351870295324 1.652489358650 -9.982302128571
1560738505.223178386688 0.022041206615 0.056584046309 -1.174306430325 0.051884680889 1.510707193428 -9.887529315418
1560738505.233178377151 -0.017342010674 0.043818368407 -1.183311266554 0.361589182847 1.717487519634 -9.577211719168
1560738505.243178367615 0.001054051202 0.021024634022 -1.192529777365 0.041958557602 1.681318055527 -10.192847831945
1560738505.253178358078 0.031159979435 0.002309544715 -1.211741231544 -0.188804706641 1.799629002195 -10.640448764544
1560738505.263178348541 0.051312882233 0.006797021276 -1.227188768881 -0.251186456745 1.312857515231 -10.270949269182
1560738505.273178339005 0.002351735038 -0.011992634487 -1.257685299448 -0.048378907343 1.627154340461 -9.980374239064
1560738505.283178329468 -0.016618864416 -0.015693476028 -1.274949535289 -0.280739144051 1.448265157700 -10.015262248179
1560738505.293178319931 -0.059516268249 -0.018945372036 -1.288047611952 -0.116683128450 1.453657794859 -10.064147363571
1560738505.303178310394 -0.086771880290 -0.015713597872 -1.277901464083 0.259329226649 1.883358395774 -9.574728889642
1560738505.313178300858 -0.086063798574 -0.049747646284 -1.296617281906 0.077459655060 1.342122433685 -9.954171181673
1560738505.323178291321 -0.064539971132 -0.062314447154 -1.309939784647 -0.022504367703 2.091804278199 -10.639680997320
1560738505.333178281784 0.020417615605 -0.055700842093 -1.288842831739 -0.289422171937 1.614230307506 -10.316832725584
1560738505.343178272247 0.087768843080 -0.065713521334 -1.307017725870 -0.068011991698 1.882380758899 -9.944756716964
1560738505.353178262711 0.158303667981 -0.072492360499 -1.321176302575 -0.177981932063 1.205024828125 -9.855768861086
1560738505.363178253174 0.192205173126 -0.075411743594 -1.321555996449 0.016143565153 1.974220909168 -10.079717159743
1560738505.373178243637 0.255812409368 -0.068241489820 -1.324934309212 -0.216556170962 1.568684335774 -9.767596705964
1560738505.383178234100 0.260448686278 -0.082215437139 -1.338964310573 0.436184554656 1.526789694286 -9.672297321235
1560738505.393178224564 0.303620350054 -0.055260023664 -1.326047915341 -0.303374098045 1.560645729508 -10.332596390475
1560738505.403178215027 0.313760279494 -0.017156720564 -1.332782683362 -0.375338481455 1.465323670580 -10.466545062141
1560738505.413178205490 0.304982766760 0.028513577038 -1.335102970156 -0.273263823463 1.512977765394 -9.875944203278
1560738505.423178195953 0.270806179186 0.055202813372 -1.339988715548 -0.152162868434 1.053107246640 -9.934991263357
1560738505.433178186417 0.230582990427 0.086574446254 -1.332719312589 -0.433174102289 1.667484220495 -10.213667151263
1560738505.443178176880 0.237045200672 0.093148991511 -1.329698468721 -0.181287275764 1.517365627279 -9.880150485441
1560738505.453178167343 0.217176502127 0.065267509352 -1.330567037111 0.177369469567 1.069034718508 -9.740121713427
1560738505.463178157806 0.190036544201 0.030731815253 -1.328695008614 -0.128672939905 1.828050177662 -10.339187609713
1560738505.473178148270 0.247341773891 -0.005713250729 -1.337019938437 -0.315919607782 1.905648807081 -10.536264649590
1560738505.483178138733 0.297581345216 -0.050132342151 -1.317843138514 0.074331120735 1.075147767723 -9.947780560024
1560738505.493178129196 0.300303290834 -0.098021171922 -1.309298890014 -0.055710997284 1.858506758548 -10.240923042941
1560738505.503178119659 0.376050603740 -0.130281273059 -1.320454416213 -0.253994641580 1.291620610995 -10.549451117720
1560738505.513178110123 0.431021797202 -0.141435758898 -1.300700846409 -0.255050982255 2.027119281387 -10.702729316235
1560738505.523178100586 0.545969054315 -0.125460373155 -1.277237068754 -0.470508356674 1.594198811714 -10.028830037911
1560738505.533178091049 0.612620572225 -0.114504666259 -1.289499376997 -0.128195732855 1.307059768669 -10.187858942689
1560738505.543178081512 0.636508537751 -0.087618857196 -1.285620897612 -0.476057298328 1.425005450882 -10.366779644345
1560738505.553178071976 0.620255578977 -0.053552617933 -1.281296807365 -0.431907601459 1.537306688134 -10.221289811734
1560738505.563178062439 0.626046522285 -0.028331698662 -1.278437325132 -0.179403685981 1.366132468365 -9.904632689594
1560738505.573178052902 0.588695372151 -0.006096016682 -1.269243903635 -0.183285771040 0.846167663142 -9.818478615060
1560738505.583178043365 0.531881214190 0.014165654751 -1.263755511885 -0.284643163209 1.795627636268 -10.607271335336
1560738505.593178033829 0.524563750142 0.060691136791 -1.250926276561 -0.198134009951 1.141345142474 -9.918036352144
1560738505.603178024292 0.468472910719 0.054024818213 -1.243709143611 0.023755856044 1.372601552095 -10.329998843376
1560738505.613178014755 0.435279450102 0.073185604488 -1.245192871899 -0.622181179034 1.505217728751 -10.811651051380
1560738505.623178005219 0.420389698195 0.090515825232 -1.241255697574 -0.435141375985 1.189666902436 -10.158789392481
1560738505.633177995682 0.326054106187 0.069514597716 -1.248301716475 -0.074665224752 1.259088065771 -10.179067667271
1560738505.643177986145 0.235893730260 0.066262394990 -1.242402097846 -0.512828814270 0.950022361612 -10.403975411565
1560738505.653177976608 0.122630130674 0.051713666995 -1.253697511999 -0.226247761540 1.544901986371 -10.555014115270
1560738505.663177967072 0.095006512874 0.027098035847 -1.240270096794 -0.182563043400 1.194650914308 -10.002412711076
1560738505.673177957535 0.062995359560 -0.025904839088 -1.226906285711 -0.103432810202 1.239250579517 -10.364242886844
1560738505.683177947998 0.108319999040 -0.049046468520 -1.218062811865 -0.459113593336 1.629136584531 -10.740348877242
1560738505.693177938461 0.172764280967 -0.077197522549 -1.204258589349 -0.153488029668 1.586802530309 -10.348707285697
1560738505.703177928925 0.293424615836 -0.115081576937 -1.189938371667 -0.076121461129 1.524053101736 -10.411069578805
1560738505.713177919388 0.434619273610 -0.138550678143 -1.162877441372 -0.072015555091 1.465577864496 -10.151469824379
1560738505.723177909851 0.623992443569 -0.141247871915 -1.156220522937 -0.244616855570 1.831331053650 -10.929483669324
1560738505.733177900314 0.784081796320 -0.111022925615 -1.147504667013 -0.512451525300 1.630845098737 -10.629581281884
1560738505.743177890778 0.878088607295 -0.077085124383 -1.149604419607 -0.312717383961 1.464064483249 -9.896952248526
1560738505.753177881241 0.911073673252 -0.048117747194 -1.174170962156 -0.183568808947 0.919610826817 -10.268637043530
1560738505.763177871704 0.868780041908 0.015344516003 -1.186022484690 -0.540289909066 1.394865553671 -10.618251738225
1560738505.773177862167 0.784248240267 0.095458616170 -1.195240466399 -0.611200849389 1.042549880621 -10.262040460490
1560738505.783177852631 0.633783718987 0.157300044101 -1.219254174271 -0.067042452327 0.910323226830 -10.067445277654
1560738505.793177843094 0.478316485843 0.220198252315 -1.208194356866 -0.574572329456 1.090099917794 -10.457589087961
1560738505.803177833557 0.294204516298 0.272221775080 -1.212330417566 -0.415162838047 0.929392246170 -10.355550517369
1560738505.813177824020 0.064265107088 0.269240736582 -1.236238552505 0.109773884451 0.744727003019 -10.396044267841
1560738505.823177814484 -0.158747757558 0.248033628406 -1.243847027933 -0.300820190686 1.449387873108 -10.498725201288
1560738505.833177804947 -0.249905086235 0.208162715214 -1.252710577649 -0.331656443442 0.952347649313 -10.791068021019
1560738505.843177795410 -0.297804884138 0.135918694729 -1.244487600207 0.047705505680 1.357021479515 -10.236393665322
1560738505.853177785873 -0.231472212128 0.049274351973 -1.239960915873 -0.053556965324 1.266056889480 -10.519940746902
1560738505.863177776337 -0.146720482216 -0.033522879671 -1.252257476617 -0.201174715335 1.187518288903 -10.657680669586
1560738505.873177766800 -0.015618590134 -0.103369496765 -1.249567673177 -0.081122222399 1.844960459873 -10.976343869317
1560738505.883177757263 0.163843923535 -0.152821834054 -1.246270152782 -0.507443314249 1.597720559734 -10.910841659040
1560738505.893177747726 0.315564143888 -0.180282852403 -1.245496509704 -0.337041117071 1.463113031485 -10.171237336005
1560738505.903177738190 0.442150563643 -0.179014497258 -1.260288650248 -0.389825451245 1.117477820118 -10.421983568805
1560738505.913177728653 0.485660898908 -0.161693021789 -1.287144815158 -0.265429884354 1.194894163843 -10.120998975793
1560738505.923177719116 0.477119251124 -0.131136015205 -1.294601582960 -0.313029436542 1.140855429028 -10.094921019267
1560738505.933177709579 0.451338739729 -0.068793854107 -1.302996180155 -0.564328946610 1.175788588291 -10.516713342219
1560738505.943177700043 0.409909163923 0.009739987551 -1.305149296722 -0.440777350435 1.288043002501 -10.188077336039
1560738505.953177690506 0.301809219934 0.081141667812 -1.312719445663 -0.164571548524 0.702245420772 -9.940397254942
1560738505.963177680969 0.193410027014 0.148103307466 -1.328631382061 -0.440639613006 1.262796998156 -10.832500926128
1560738505.973177671432 0.125270326374 0.216960419643 -1.330123499705 -0.612547803187 1.031226037200 -10.519082589996
1560738505.983177661896 0.056714237595 0.237508425113 -1.321695576683 -0.032753179658 1.183457512267 -10.101652139036
1560738505.993177652359 0.046398219636 0.230296010496 -1.335690824397 -0.347169853198 1.043257861662 -10.434413528827
1560738506.003177642822 0.034099666019 0.203628234630 -1.336320082397 -0.250011782461 1.193990432458 -10.477257474808
1560738506.013177633286 0.067509143514 0.161168578127 -1.343717537733 -0.155597632018 1.714310129020 -10.665069287269
1560738506.023177623749 0.106203368683 0.112574360823 -1.361656087214 -0.383628589449 0.824366303155 -10.118193896294
1560738506.033177614212 0.115391844933 0.043867837154 -1.369541004076 0.032228037094 1.312456841678 -9.983666689856
1560738506.043177604675 0.166543111591 -0.002529163282 -1.373553530272 -0.158047959611 1.192629000074 -10.484324865695
1560738506.053177595139 0.202608618602 -0.023303683327 -1.379120123568 -0.362995925630 1.198501513854 -10.398398321828
1560738506.063177585602 0.254145435930 -0.027983205448 -1.378967361353 -0.378353540656 1.550186257926 -10.597229318942
1560738506.073177576065 0.301770345602 -0.007592274008 -1.383227500309 -0.521062542588 1.013245662252 -10.290994764005
1560738506.083177566528 0.295587938249 0.013800201821 -1.385490429742 -0.170724779072 1.105062697747 -9.890973736787
1560738506.093177556992 0.285920463100 0.043684247724 -1.411908929490 -0.373062156702 0.790234901479 -10.543286279419
1560738506.103177547455 0.248482735424 0.100779612955 -1.415281944161 -0.590948156998 1.324223806348 -10.363521940624
1560738506.113177537918 0.225314984136 0.140335331911 -1.409467831741 -0.402019584032 0.964566154645 -9.975005315427
1560738506.123177528381 0.213869190693 0.170978302323 -1.414963533409 -0.163366976082 1.075344059411 -9.977273458966
1560738506.133177518845 0.204567564911 0.180768668473 -1.421082223462 -0.321782032498 0.870061347050 -10.009024636573
1560738506.143177509308 0.192857748157 0.177898264942 -1.415192990237 -0.204497934387 1.377523377301 -10.467369116258
1560738506.153177499771 0.219761906767 0.178327815205 -1.428302861091 -0.436661559401 1.092083116441 -10.771309480940
1560738506.163177490234 0.203925204128 0.155848655126 -1.437105791670 -0.204849117455 1.088448096940 -9.872353033019
1560738506.173177480698 0.201714429665 0.127630129662 -1.443366307424 -0.006198788402 0.937993874806 -10.296436285710
1560738506.183177471161 0.182269141358 0.116649873680 -1.459501070167 -0.269263627838 1.113765630689 -10.530546810728
1560738506.193177461624 0.169742917122 0.102821416384 -1.459493236227 -0.276700130689 1.011915997161 -10.505834968436
1560738506.203177452087 0.148863108755 0.096998253687 -1.462628639198 -0.275515843534 1.445646955568 -10.907445411055
1560738506.213177442551 0.189273549332 0.118142152747 -1.469716510421 -0.379476430473 1.157679592554 -10.075969065533
1560738506.223177433014 0.239167519040 0.121808673196 -1.503084501524 -0.122538231052 0.978276248645 -10.287407259471
1560738506.233177423477 0.268190028014 0.143867250441 -1.524058639786 -0.306191990716 1.228140237882 -10.647482453698
1560738506.243177413940 0.307289373091 0.173204859035 -1.521099115557 -0.393909558894 1.270447060200 -10.495287871532
1560738506.253177404404 0.335404410380 0.193847652974 -1.518802159489 -0.459731555673 1.179400691459 -10.560701392869
1560738506.263177394867 0.337915820293 0.232512972955 -1.527158439458 -0.520452162257 1.313155755200 -10.326527036435
1560738506.273177385330 0.297315937973 0.238742870590 -1.540681847980 -0.330785851079 0.516281203252 -10.073867070824
1560738506.283177375793 0.192794946558 0.229154340411 -1.565437015108 -0.252737463922 0.763167987385 -10.666104240852
1560738506.293177366257 0.111858765025 0.237747193288 -1.568202627125 -0.600369340268 1.535276371269 -10.701486464538
1560738506.303177356720 0.095345856427 0.226766394273 -1.553531070833 -0.341307938865 0.992371353178 -10.261052225557
1560738506.313177347183 0.068288731504 0.213855184018 -1.553130626399 -0.255875314052 1.154080178779 -10.249550581952
1560738506.323177337646 0.028366920155 0.191560879803 -1.558174400791 -0.328970300996 0.722983334120 -10.002287908216
1560738506.333177328110 -0.008449245499 0.157090314637 -1.577634105184 -0.200607553013 1.385591209753 -10.510982088065
1560738506.343177318573 0.005785656164 0.143361148420 -1.573643582833 -0.592008053276 1.095947762948 -10.545705961795
1560738506.353177309036 0.006004751246 0.124401584117 -1.562628638554 -0.351909451987 1.193963704624 -10.101342570006
1560738506.363177299500 0.033665912506 0.108628354885 -1.565901128142 -0.321326759288 1.176759246083 -10.249645738633
1560738506.373177289963 0.048352315265 0.092584511404 -1.565295671587 -0.252648211779 0.895888018629 -10.027272524990
1560738506.383177280426 0.032828082013 0.083151932833 -1.557055760399 -0.298993508632 1.022984865144 -10.252870207929
1560738506.393177270889 0.078172787465 0.096716477036 -1.561732770588 -0.572754994636 1.359408009953 -10.739113696729
1560738506.403177261353 0.085011638092 0.112363399521 -1.551735126279 -0.527174670652 0.983338957510 -9.995491651596
1560738506.413177251816 0.068415389602 0.115041803794 -1.544581006850 -0.200844232892 1.082456576823 -10.106066326742
1560738506.423177242279 0.054143313426 0.121010775356 -1.548450198661 -0.326228563434 1.010188594831 -10.438033917039
1560738506.433177232742 0.028209614363 0.135677208907 -1.550371529115 -0.378334671455 1.198394030776 -10.421118750782
1560738506.443177223206 0.005430537370 0.147243402915 -1.537836453690 -0.523047348640 1.131196756046 -10.622738247731
1560738506.453177213669 0.007141974331 0.165349448769 -1.514675235698 -0.375518435845 1.329685925459 -10.296618058966
1560738506.463177204132 0.032780087942 0.166087078809 -1.500554579014 -0.293489939941 0.859288534654 -9.889688857959
1560738506.473177194595 0.026208637142 0.176440487529 -1.487950559201 -0.312408040680 0.996735027107 -10.497372684341
1560738506.483177185059 0.059228792317 0.206066169919 -1.470810481179 -0.629820711757 1.534465135292 -10.951637096251
1560738506.493177175522 0.105066446600 0.223774285919 -1.465433496270 -0.463815088814 1.298493415262 -10.186573800427
1560738506.503177165985 0.141317505726 0.219316566078 -1.443669417625 -0.175909321270 0.987672380765 -9.951019426611
1560738506.513177156448 0.170610878670 0.241449709368 -1.429390323429 -0.491319412156 1.130490377610 -10.592762169444
1560738506.523177146912 0.218617767600 0.264446995229 -1.425717068892 -0.518319098290 1.378696970850 -10.753263584820
1560738506.533177137375 0.243875885896 0.277772133877 -1.406928279065 -0.398732966848 1.281470235351 -10.254793175929
1560738506.543177127838 0.252285487793 0.285624004695 -1.380144049973 -0.334809162746 1.027857196947 -9.935429965175
1560738506.553177118301 0.260802413998 0.301465918219 -1.366949023909 -0.373651937444 1.092591936791 -10.524482146108
1560738506.563177108765 0.265637649161 0.311577074669 -1.361220414097 -0.490963791229 1.426041094085 -10.805307550100
1560738506.573177099228 0.247471817684 0.311937171188 -1.358814395332 -0.445523695411 1.378824517658 -10.640339211730
1560738506.583177089691 0.196049589492 0.297345912349 -1.342882513352 -0.385206305852 0.970172615100 -10.385085134221
1560738506.593177080154 0.017973442227 0.253515697501 -1.344619068703 -0.248752710833 1.379624582205 -10.534046030642
1560738506.603177070618 -0.002754462167 0.243691769820 -1.297282039154 -0.458425251767 1.119293605171 -10.473049242376
1560738506.613177061081 -0.014631777550 0.252274816241 -1.253849141408 -0.332804819832 1.263558203504 -10.150976891194
1560738506.623177051544 0.002553071921 0.257861484658 -1.234945132948 -0.438540578984 1.060026085428 -10.342294882551
1560738506.633177042007 0.032337316299 0.268411858697 -1.223452745537 -0.391850483178 1.338304147251 -10.559202280272
1560738506.643177032471 0.089925979930 0.287828687239 -1.185254931947 -0.484358157523 1.425290777550 -10.436122409513
1560738506.653177022934 0.143145056948 0.310279946375 -1.155645061617 -0.418258009972 1.205153417703 -10.095288954279
1560738506.663177013397 0.191963546482 0.327391764912 -1.141577780730 -0.433108011540 1.128229447173 -10.342982056673
1560738506.673177003860 0.213862606051 0.341152799594 -1.133726579453 -0.600181771857 1.154243759771 -10.955152861914
1560738506.683176994324 0.223581926370 0.357759724643 -1.111108601856 -0.559250394292 1.709294818343 -10.836401186223
1560738506.693176984787 0.238083168663 0.356760705559 -1.083829988317 -0.320927722233 1.092007973986 -10.073050292680
1560738506.703176975250 0.201016142551 0.325215697845 -1.073844214479 -0.270219684216 0.857720182035 -10.161132863637
1560738506.713176965714 0.160171709334 0.317068045213 -1.058110279465 -0.631046156172 1.419321052236 -10.909022765094
1560738506.723176956177 0.134855417237 0.308600640657 -1.043665220790 -0.461580432004 1.427373570749 -10.437233333993
1560738506.733176946640 0.094923885905 0.263671316643 -1.029225559528 -0.000876636072 0.972301131965 -9.621056950226
1560738506.743176937103 0.025465003203 0.247639041453 -1.011223269501 -0.499339977922 0.937107763623 -10.256887316927
1560738506.753176927567 -0.022743425507 0.242395787843 -0.992972395769 -0.682502312383 1.340980568514 -10.657747219840
1560738506.763176918030 -0.058646988757 0.227208834144 -0.974579352124 -0.133642827396 1.201456111841 -9.992907716634
1560738506.773176908493 -0.104735510929 0.205848234753 -0.946440465770 -0.358441846994 0.851331097066 -10.048807248866
1560738506.783176898956 -0.145605287881 0.201124879586 -0.928492304022 -0.783466637409 1.496503842133 -10.824867473288
1560738506.793176889420 -0.105286645780 0.226821065879 -0.911256482944 -0.641197805465 1.487537480317 -10.700283286324
1560738506.803176879883 -0.066062410174 0.230696284943 -0.891511019668 -0.195564558441 1.382241510031 -10.190092149035
1560738506.813176870346 -0.014978245093 0.234067800642 -0.874400250725 -0.442344966146 1.574866836348 -10.235499457390
1560738506.823176860809 0.048952809787 0.258034201664 -0.848783193657 -0.476655447534 1.251062244313 -10.230013842834
1560738506.833176851273 0.088292727320 0.270763650881 -0.833567562446 -0.361905603354 1.302695250942 -10.172444780980
1560738506.843176841736 0.106287158881 0.279025667200 -0.831445842518 -0.561932443045 1.351505672671 -10.562212196615
1560738506.853176832199 0.138707879189 0.292895054177 -0.817140861095 -0.554679591525 1.567377416059 -10.598941548303
1560738506.863176822662 0.143230903024 0.293562848443 -0.802319366090 -0.224232992435 1.109638072717 -9.889470133164
1560738506.873176813126 0.097814717204 0.276006344625 -0.800932195177 -0.342078965545 1.019799029210 -9.927612724844
1560738506.883176803589 0.055201762656 0.251421899930 -0.787896991740 -0.681197186162 1.180916901403 -10.905812588106
1560738506.893176794052 0.035639401511 0.241155644015 -0.762088769892 -0.666020237505 1.592158973280 -10.861835457628
1560738506.903176784515 0.003503430837 0.219950866014 -0.755286445922 -0.207965618964 1.292393825292 -10.055591983119
1560738506.913176774979 -0.040661743330 0.170612581088 -0.746276461960 -0.352594864550 1.205088575096 -10.240114196197
1560738506.923176765442 -0.047398295448 0.177818179989 -0.729000543288 -0.732054898417 1.383695878884 -10.890027729820
1560738506.933176755905 -0.051889244685 0.181275939161 -0.722729909085 -0.540778153309 1.607334075074 -10.502199709759
1560738506.943176746368 -0.075366280263 0.171754867554 -0.713106912596 -0.133536949017 1.096306203497 -9.924907728037
1560738506.953176736832 -0.088656925079 0.179669895788 -0.696851149977 -0.373493883716 1.328163915911 -10.045190210103
1560738506.963176727295 -0.081544878566 0.194868476468 -0.677558618222 -0.632511729585 1.380284684347 -10.389061991966
1560738506.973176717758 -0.061045112026 0.220988262093 -0.665422463962 -0.544190204747 1.459244726687 -10.293969226158
1560738506.983176708221 -0.051496367247 0.240353404484 -0.656789671205 -0.463867189202 1.303315143667 -10.344203892778
1560738506.993176698685 -0.016681504409 0.254602999771 -0.646300536209 -0.558194783739 1.608527813228 -10.603310379112
1560738507.003176689148 0.017430437322 0.260367931845 -0.633290992793 -0.450822744103 1.490368152907 -10.373298069430
1560738507.013176679611 0.046194202019 0.246780181293 -0.620988969087 -0.362650289778 1.293297754300 -10.231889543806
1560738507.023176670074 0.079237277435 0.236736596499 -0.611178176644 -0.479949651910 1.622126605424 -10.571483333702
1560738507.033176660538 0.144768364269 0.235049028229 -0.610515782864 -0.646420995761 1.735891186857 -10.752590398746
1560738507.043176651001 0.200780232205 0.225918895043 -0.599515819998 -0.322830792688 1.756563219618 -10.049212656330
1560738507.053176641464 0.225866902658 0.222853836208 -0.580971488391 -0.272153991461 0.972001463069 -9.671951209063
1560738507.063176631927 0.185294253201 0.216935514330 -0.592806212124 -0.451006534531 1.337593387475 -10.422848759374
1560738507.073176622391 0.170558336124 0.220338713418 -0.588874236096 -0.719331823854 1.667046680076 -10.831308242741
1560738507.083176612854 0.177014794074 0.220540660215 -0.559537916653 -0.459787240598 1.188867478841 -10.046310390910
1560738507.093176603317 0.144125939756 0.219384322369 -0.561798703789 -0.044784698650 1.735103937676 -9.517598224924
1560738507.103176593781 0.093949611225 0.191072580386 -0.554996505270 -0.674741105712 1.027142529904 -10.634027678293
1560738507.113176584244 0.051069773135 0.204691979620 -0.542061350829 -0.823210218060 2.020348335747 -11.166332551229
1560738507.123176574707 0.040582939956 0.183792800343 -0.541562670131 -0.270198707002 1.560454122247 -9.987388414194
1560738507.133176565170 0.031028323094 0.134973934583 -0.549875808874 -0.112875762502 1.395773761558 -9.847601867653
1560738507.143176555634 0.033481935812 0.112131430220 -0.545468052430 -0.570418678393 1.379487049834 -10.419106815156
1560738507.153176546097 0.044646668023 0.098603930992 -0.533170630849 -0.476167934931 1.849064881295 -10.296381046492
1560738507.163176536560 0.094096532148 0.072440151627 -0.526196213172 -0.084281012088 1.651637444770 -9.673948268394
1560738507.173176527023 0.118242015889 0.063481260432 -0.528458438959 -0.189461762800 1.264083285382 -9.754515166931
1560738507.183176517487 0.123955829550 0.072481309597 -0.526428104372 -0.573852003297 1.343173404756 -10.384302994730
1560738507.193176507950 0.128277890919 0.118645885174 -0.528668479048 -0.622276347710 2.018671417518 -10.367393169210
1560738507.203176498413 0.115837638943 0.172126902021 -0.534820075355 -0.398797600413 1.155052054728 -10.283880518576
1560738507.213176488876 0.081423542239 0.213229082916 -0.528503796106 -0.372021807250 1.660047033605 -10.394212547312
1560738507.223176479340 0.054248623630 0.274585319765 -0.528809064537 -0.717747083048 1.541596782716 -10.584480243322
1560738507.233176469803 0.038943500410 0.312487073787 -0.523909925230 -0.556902703293 1.603432798429 -10.545353193612
1560738507.243176460266 0.025398867802 0.332714305857 -0.527686649504 -0.414620114943 1.301709419879 -10.617902804763
1560738507.253176450729 0.004564269040 0.330464263316 -0.541576547563 -0.346693626289 2.027823629483 -10.560549025351
1560738507.263176441193 0.009111290701 0.307864143758 -0.541256498873 -0.411763124175 1.470678966707 -10.500497789131
1560738507.273176431656 -0.043922825801 0.263995528234 -0.547267659277 -0.396357321635 1.569286453206 -10.235220569831
1560738507.283176422119 -0.070668998782 0.215926892732 -0.567936485341 -0.147455960741 1.813711326283 -10.079441457887
1560738507.293176412582 -0.104887748649 0.169550243028 -0.580238325393 -0.219622123611 1.090605717793 -10.309102066390
1560738507.303176403046 -0.138913313958 0.110460960820 -0.566785152328 -0.407283982178 1.841878562111 -10.079584222186
1560738507.313176393509 -0.152373571053 0.078578243044 -0.549857674362 -0.564007805370 1.513876492791 -10.235071191635
1560738507.323176383972 -0.155413052447 0.058101545632 -0.555718302886 -0.422182999706 1.842860625583 -10.112588390648
1560738507.333176374435 -0.155724307151 0.034907950252 -0.554727210230 -0.196818643890 1.462654287565 -10.109348250623
1560738507.343176364899 -0.172554752405 0.024405665259 -0.556062982382 -0.573761772089 1.764250548976 -10.590431421574
1560738507.353176355362 -0.152258979943 0.054913109675 -0.556470887198 -0.668695131554 1.888557268795 -10.639002933582
1560738507.363176345825 -0.108584148566 0.064884564236 -0.542736624043 -0.319310871365 2.042114946083 -10.154030261230
1560738507.373176336288 -0.055998585322 0.074460614310 -0.550691887836 -0.192893278782 1.581588012726 -10.009423139045
1560738507.383176326752 -0.047904244763 0.079289493608 -0.560890769370 -0.400391819352 1.732115814281 -10.127567859178
1560738507.393176317215 -0.051776568322 0.095838794536 -0.565440284061 -0.451863281924 1.668296488271 -10.368920035644
1560738507.403176307678 -0.021987336939 0.108507665747 -0.545647240088 -0.618046028123 2.027105075327 -10.082434814936
1560738507.413176298141 -0.001472541761 0.111954836928 -0.559752330149 -0.324979332697 1.358387066819 -10.011549589902
1560738507.423176288605 -0.014649867055 0.099790367184 -0.564228957407 -0.233551542198 1.959125263582 -9.821916372315
1560738507.433176279068 -0.004086209106 0.098036423579 -0.553567677513 -0.522779757918 1.329104779689 -10.049141405389
1560738507.443176269531 0.008540990141 0.090810203742 -0.556951656103 -0.641269119893 2.026093720668 -10.188752406664
1560738507.453176259995 0.049796274970 0.102771538773 -0.544215785166 -0.502319615522 1.827889252858 -10.063886459534
1560738507.463176250458 0.106861680061 0.098276027043 -0.541247653503 -0.306955995127 1.974546316016 -9.889672170183
1560738507.473176240921 0.196497465181 0.103956674643 -0.533175958872 -0.422123648248 2.037971286184 -9.946371706325
1560738507.483176231384 0.273959255160 0.128918034646 -0.522688003671 -0.619076079585 1.748902953930 -9.943534812358
1560738507.493176221848 0.325816891455 0.142371701965 -0.521377580112 -0.442937831083 1.945359965614 -10.036010297258
1560738507.503176212311 0.339655328366 0.150312502431 -0.533457387426 -0.361848977459 1.471813034928 -10.534915995514
1560738507.513176202774 0.296357722679 0.148878734123 -0.558533009417 -0.529651758738 2.221287293421 -10.739825710356
1560738507.523176193237 0.248854318540 0.137375424082 -0.545496369046 -0.304811626236 1.866824090427 -9.807959802316
1560738507.533176183701 0.228994716572 0.133222487927 -0.526173569185 -0.369817863982 1.609559538226 -9.562818973480
1560738507.543176174164 0.208512791805 0.124437020565 -0.540098318680 -0.362495167751 1.716955346181 -10.035212120776
1560738507.553176164627 0.174587673777 0.120899943577 -0.533389925030 -0.625827495620 1.854427722909 -10.591329996248
1560738507.563176155090 0.113989975260 0.123300973278 -0.534032179783 -0.578810406499 1.924979746712 -10.347065974956
1560738507.573176145554 0.062977927199 0.114471772321 -0.525313369644 -0.307613345623 1.893013133029 -9.745472859377
1560738507.583176136017 0.049301707912 0.106746413025 -0.516545333190 -0.532247242460 1.714223879272 -10.170466195258
1560738507.593176126480 0.086662511116 0.137406975691 -0.516040222503 -0.607588825760 2.407774308876 -10.608952313735
1560738507.603176116943 0.151900215552 0.160319693661 -0.497376937837 -0.484803417136 2.138827581620 -10.065517435792
1560738507.613176107407 0.169402100256 0.154063248097 -0.499167367233 -0.209805119603 1.771442062499 -9.394689022354
1560738507.623176097870 0.156568680730 0.138529685373 -0.498859006308 -0.060982527175 1.797740936949 -9.311157724461
1560738507.633176088333 0.192994965217 0.129329317473 -0.491746384823 -0.632621695427 2.017153676811 -10.337269537754
1560738507.643176078796 0.247392948959 0.139638473360 -0.480592395047 -0.630243980207 2.384656138111 -10.068294246747
1560738507.653176069260 0.288061048253 0.141739507621 -0.459992118923 -0.225555775146 1.706910420239 -9.440861967299
1560738507.663176059723 0.274324012347 0.126421759679 -0.460013125438 -0.242246225589 1.716999822369 -9.713103060190
1560738507.673176050186 0.242846092949 0.129875394408 -0.458851734683 -0.663777976428 2.043875040443 -10.495613026335
1560738507.683176040649 0.240577278129 0.146508744091 -0.439672263552 -0.771036700595 2.185750087666 -10.540351664056
1560738507.693176031113 0.209253736424 0.163839632844 -0.449669679202 -0.413287471605 1.849188202557 -10.037199947279
1560738507.703176021576 0.150935547554 0.149317378219 -0.453983671483 -0.245732948724 2.224034526212 -9.966727951632
1560738507.713176012039 0.113105776187 0.170776195553 -0.453320354239 -0.722512874634 1.374662847828 -10.183168068076
1560738507.723176002502 0.059155369963 0.167734320021 -0.425853109467 -0.287238148153 2.130552459755 -9.514013905091
1560738507.733175992966 0.066281834801 0.164426466224 -0.416329536634 -0.433126722536 1.700987017559 -9.699129376794
1560738507.743175983429 0.058486711035 0.159722938994 -0.422667297692 -0.621970810744 2.304673371406 -10.008254438301
1560738507.753175973892 0.084546756060 0.164375573790 -0.400443271165 -0.380010342039 2.105579807681 -9.532527000989
1560738507.763175964355 0.100029045132 0.151916622780 -0.383073257349 -0.281987794962 1.830461086602 -9.474938657393
1560738507.773175954819 0.120907333122 0.169514512182 -0.392164270828 -0.758363942186 2.236175954299 -10.306753800085
1560738507.783175945282 0.209178743892 0.200323025044 -0.375553710930 -0.783027753563 2.369369642598 -10.309164400542
1560738507.793175935745 0.326645498154 0.236800856943 -0.353781721466 -0.368623901784 2.431966234984 -9.332292292446
1560738507.803175926208 0.426341307476 0.249558673888 -0.342434995473 -0.260475091445 1.894955705156 -9.155495646600
1560738507.813175916672 0.469485824859 0.263758685256 -0.342993119963 -0.499122628781 2.247900883829 -9.923433526673
1560738507.823175907135 0.509345399831 0.279114903126 -0.337499718656 -0.724356110363 2.284813808128 -10.305310930077
1560738507.833175897598 0.450876436320 0.274340946640 -0.347932917790 -0.257681725495 1.859347189526 -10.000598965519
1560738507.843175888062 0.391144355735 0.249683082004 -0.360241107038 -0.414874265314 2.307686773469 -9.890864891450
1560738507.853175878525 0.378671878705 0.236176842865 -0.342106743963 -0.456339849885 1.934652356896 -9.647001705797
1560738507.863175868988 0.377780417523 0.211245476756 -0.317239799761 -0.376280512218 2.313466155504 -9.164750481133
1560738507.873175859451 0.375994624569 0.186026623954 -0.320073564667 -0.531276521887 1.799732471163 -10.089378366835
1560738507.883175849915 0.339966281635 0.167137536277 -0.323126674605 -0.781233544083 2.361401694572 -10.776327446899
1560738507.893175840378 0.308515315666 0.148084581913 -0.309881179041 -0.189785410400 2.580044567475 -9.639254306359
1560738507.903175830841 0.281416176107 0.117693674491 -0.303435039752 -0.261776773360 1.605749180095 -9.473181088505
1560738507.913175821304 0.244357517376 0.114845122218 -0.316428275713 -0.714187420275 2.609833653017 -10.162594605241
1560738507.923175811768 0.263897829149 0.128538351072 -0.289510420894 -0.933337110301 1.760936121224 -10.226775997520
1560738507.933175802231 0.236590607500 0.114920864551 -0.277508625107 0.040349378607 2.358562216083 -8.963267120653
1560738507.943175792694 0.225613755855 0.120551102728 -0.282578608066 -0.651734884322 1.691116852287 -9.617940777360
1560738507.953175783157 0.176360177664 0.135787691775 -0.281730264748 -0.815214856885 2.473989918779 -10.080028248821
1560738507.963175773621 0.166211933270 0.137482956431 -0.275074243534 -0.253251566478 2.160322202466 -9.698539756746
1560738507.973175764084 0.152423323758 0.125768876398 -0.270719359911 -0.590864083067 2.425999376904 -9.794849341188
1560738507.983175754547 0.227086437660 0.148425456433 -0.253591385688 -0.730411847763 2.631691148668 -9.437929119297
1560738507.993175745010 0.296002939319 0.150344254764 -0.233665207626 -0.052721579773 2.212865861282 -9.171082213081
1560738508.003175735474 0.357005599139 0.157307651283 -0.234372099128 -0.663768079429 2.282844410167 -9.626134473984
1560738508.013175725937 0.410172378812 0.189186051574 -0.235873826284 -1.082969592168 2.797888505950 -10.174827542897
1560738508.023175716400 0.556818686840 0.191865412361 -0.227804002629 -0.006875443327 2.250207589101 -8.780785784973
1560738508.033175706863 0.602611164672 0.205812542447 -0.223576248296 -0.450583717337 2.211881118230 -9.442888163019
1560738508.043175697327 0.647263753840 0.240560243797 -0.214678441472 -0.982550225721 2.517945288318 -10.057635917718
1560738508.053175687790 0.660186900111 0.229400746871 -0.218255170772 0.004527190591 2.211806907323 -9.149744481723
1560738508.063175678253 0.580635762017 0.194644984363 -0.219669541531 -0.404538171572 2.224398157272 -9.271144654815
1560738508.073175668716 0.520981214201 0.200964762051 -0.210884943633 -0.805074430904 2.139000176177 -9.374072397725
1560738508.083175659180 0.450211306264 0.169672169129 -0.217106452081 0.050485702572 2.151743572607 -9.187372041855
1560738508.093175649643 0.397297571283 0.155583267056 -0.201479488471 -0.661459680302 2.575428725302 -9.320974938032
1560738508.103175640106 0.402575724842 0.158218621784 -0.192081806098 -0.680608662457 1.993802952003 -8.972849609868
1560738508.113175630569 0.382040449025 0.125120120559 -0.183185823830 0.416226112786 2.370887035457 -9.142541200224
1560738508.123175621033 0.433729621866 0.150088037621 -0.175138843967 -0.982954827579 2.648202943475 -9.743694669922
1560738508.133175611496 0.447925101136 0.151188384763 -0.180677814008 -0.096029237163 2.095070896782 -9.203667423316
1560738508.143175601959 0.398725305115 0.129350137934 -0.184691196104 -0.475155609627 2.538965255839 -10.353412649612
1560738508.153175592422 0.361286649338 0.147514507556 -0.188931906667 -0.981528347239 2.493419184370 -10.230859291902
1560738508.163175582886 0.291307170803 0.117615556341 -0.188524459594 0.131219225478 2.111933346731 -9.222520270820
1560738508.173175573349 0.206846299021 0.113512711362 -0.177935458468 -0.668677508246 2.617725123537 -9.913304336276
1560738508.183175563812 0.198577158079 0.133386848046 -0.178668759007 -0.553684322094 2.478393632659 -9.611043401680
1560738508.193175554276 0.162319412934 0.093069988393 -0.182646951793 0.118150550495 2.410890061032 -8.963561348166
1560738508.203175544739 0.157052318299 0.104889909226 -0.164633732236 -0.784102581005 2.731704415778 -9.711395582269
1560738508.213175535202 0.248011301655 0.122810928215 -0.152362569814 -0.540953362468 2.340539376045 -9.319386641318
1560738508.223175525665 0.254422912893 0.092614754666 -0.169770698170 0.018127438914 2.313878983443 -8.844142178711
1560738508.233175516129 0.311743180989 0.121687258774 -0.149929751871 -0.909999152280 2.648000293545 -9.384434173487
1560738508.243175506592 0.402237352389 0.124278025238 -0.156324077862 -0.018341040065 2.504372777545 -9.036667920271
1560738508.253175497055 0.446624712477 0.116569478324 -0.163671212373 -0.635363134496 2.533488342611 -9.506488608447
1560738508.263175487518 0.453191706314 0.115673116769 -0.176009053216 -0.611281049181 2.260115579757 -9.547224608607
1560738508.273175477982 0.479398126105 0.086693950560 -0.170410135518 0.055333272325 2.805330416886 -9.347083743392
1560738508.283175468445 0.527814563325 0.077997591455 -0.161809761463 -0.750342068188 2.388508760560 -9.492407551815
1560738508.293175458908 0.560599405767 0.050165711462 -0.154195654667 -0.079116372083 2.414545889886 -8.782513855232
1560738508.303175449371 0.618462486483 0.023072233702 -0.147356038533 -0.116871434008 2.637515058660 -9.021640828081
1560738508.313175439835 0.712730794170 0.034058716093 -0.132666018113 -0.747769998701 2.698813602029 -8.842164861254
1560738508.323175430298 0.810946782166 0.034939790965 -0.141070520816 -0.005894091340 2.378926384542 -8.603656167772
1560738508.333175420761 0.879880275021 0.052427359744 -0.146734944941 -0.756074674661 2.664156857741 -9.762356724622
1560738508.343175411224 0.948614651893 0.087224323875 -0.138947757747 -0.652833598863 2.276575512200 -9.196374195114
1560738508.353175401688 0.957644214487 0.097566997086 -0.154631352890 -0.015628583893 2.631375600353 -8.953416538686
1560738508.363175392151 1.028409085403 0.147393839628 -0.141105238912 -0.836695283819 2.535413771212 -9.638836443700
1560738508.373175382614 1.052441382339 0.173513783237 -0.144685213476 -0.002279140091 2.445321130294 -8.521934013009
1560738508.383175373077 1.011119105232 0.167046525934 -0.134532345334 -0.384034974184 2.481319955667 -9.222083442950
1560738508.393175363541 0.986593759364 0.188782421345 -0.151472505833 -0.524304330244 2.148940175049 -9.440185523528
1560738508.403175354004 0.912201355821 0.165946344537 -0.168392262686 0.024450075188 2.585974899005 -8.853665010535
1560738508.413175344467 0.863757594682 0.176595324797 -0.139989910186 -0.853811722392 2.079970302932 -9.953292402215
1560738508.423175334930 0.797021718183 0.167736139810 -0.188115007209 -0.203269489458 2.777129173635 -9.422687531196
1560738508.433175325394 0.836312020802 0.171750064138 -0.156731782781 -0.867607318271 2.530295718086 -9.733387828851
1560738508.443175315857 0.830998013058 0.179958744840 -0.191792669297 0.243800482298 2.203875596140 -9.367825431965
1560738508.453175306320 0.864030713015 0.174959708438 -0.176371208480 -0.554231613465 2.577262177732 -9.595380427091
1560738508.463175296783 0.843439663820 0.174636622055 -0.188352589556 -0.211078513609 2.352480575853 -9.572847300943
1560738508.473175287247 0.837119134359 0.158820707282 -0.188685342194 -0.254701325620 2.812450377202 -9.423268879049
1560738508.483175277710 0.880105342696 0.170982203515 -0.193577429648 -0.370003758738 2.438660265031 -9.250764082950
1560738508.493175268173 0.891494246228 0.176874334542 -0.203668108381 0.101821227512 2.434618908161 -9.027166356441
1560738508.503175258636 0.894184652163 0.197150591567 -0.194715140157 -0.446728148518 2.555415823768 -9.347624802751
1560738508.513175249100 0.884244011893 0.216876386976 -0.220936160190 -0.045584612907 2.167739005345 -9.262046266142
1560738508.523175239563 0.849179320567 0.246513628556 -0.214592386552 -0.356227548488 2.782654741640 -9.701031764452
1560738508.533175230026 0.885057602861 0.297645882598 -0.225679281893 -0.328413962200 2.444400435836 -9.523008962676
1560738508.543175220490 0.960652963403 0.332301179157 -0.211779067480 -0.428413631657 2.801158909834 -9.796076418752
1560738508.553175210953 1.057132523970 0.386891648539 -0.210306902811 -0.664475663042 2.322725710803 -9.719911335186
1560738508.563175201416 1.087504830565 0.392155896024 -0.228127382476 0.101049102714 2.878513272649 -9.590105052793
1560738508.573175191879 1.169420418837 0.430686800057 -0.232654754011 -0.654211103221 2.192974477260 -9.321321036639
1560738508.583175182343 1.133101064776 0.407818519683 -0.265135863863 0.134160798305 2.478051158456 -9.031296227168
1560738508.593175172806 1.101321203080 0.394369254640 -0.265468161737 -0.539191208621 2.155501824091 -9.377426422711
1560738508.603175163269 0.999975754819 0.357513133912 -0.307150923776 0.214151612836 2.004513037609 -9.278980114144
1560738508.613175153732 0.909769851404 0.318000821710 -0.301700495357 -0.307458622817 2.481340689479 -9.932896621677
1560738508.623175144196 0.881534975236 0.277844585027 -0.331180780462 -0.159487200784 2.758559420040 -9.793936641353
1560738508.633175134659 0.909177505408 0.236611087269 -0.329560325019 -0.323820889823 2.128785459175 -10.143668874290
1560738508.643175125122 0.856308497645 0.205895795167 -0.350590043217 -0.097091866159 2.782437121671 -9.825138818562
1560738508.653175115585 0.817353226291 0.171192842677 -0.363180447437 -0.329754534963 2.284443405473 -10.232606210547
1560738508.663175106049 0.697559321815 0.138265278148 -0.403217364809 -0.243875021752 2.027646948446 -9.943610503473
1560738508.673175096512 0.612841695381 0.115692927463 -0.416191394508 0.054329795237 3.667546513670 -9.945624745994
1560738508.683175086975 0.692257731714 0.084428286135 -0.358854582867 -0.858581810520 0.283427576911 -10.402682563334
1560738508.693175077438 0.523295515862 0.058082428841 -0.409093407833 0.399016063616 3.615869289254 -9.369800188724
1560738508.703175067902 0.616273446030 0.036212974439 -0.365304387768 -0.501365164706 2.089883149488 -9.835970704382
1560738508.713175058365 0.615484846683 0.021095868661 -0.365615201492 0.024924265444 2.485963467948 -9.403747227094
1560738508.723175048828 0.676439821321 0.028673889172 -0.356811736190 -0.626258970265 2.432848191914 -9.696673365967
1560738508.733175039291 0.747491864179 0.030821211155 -0.355948368358 -0.400211686576 2.450914849574 -9.628426096294
1560738508.743175029755 0.856261934324 0.053222388789 -0.325959332946 -0.427570365131 2.787227894864 -9.683983605969
1560738508.753175020218 0.923492236617 0.046123071842 -0.334178383665 -0.081386463537 1.716228924522 -9.213566697101
1560738508.763175010681 0.907750823482 0.057646321787 -0.320582304413 -0.122493244200 2.598593123374 -9.234136524468
1560738508.773175001144 0.902237602952 0.034079175440 -0.335159717577 -0.032286465410 2.195283255436 -9.329012010541
1560738508.783174991608 0.901777049341 0.046956172713 -0.325639377293 -0.164249208762 2.371088934225 -9.682669018210
1560738508.793174982071 0.873143616990 0.050732114943 -0.338137256961 -0.245310906681 1.928815932808 -9.957665053162
1560738508.803174972534 0.800551563111 0.090307420054 -0.346598228140 -0.263964916995 2.828800150907 -9.853106185727
1560738508.813174962997 0.744138556350 0.134868452947 -0.335802419543 -0.460320355274 1.651236363577 -10.055568150708
1560738508.823174953461 0.653495116708 0.180626111954 -0.349450949064 -0.313136829069 2.360753625413 -9.559586721476
1560738508.833174943924 0.645709639653 0.223765799933 -0.330075054104 -0.444384987532 2.033381992597 -9.992877595401
1560738508.843174934387 0.670501540193 0.262104754657 -0.315172955119 -0.244818548846 2.759565482142 -9.614690404469
1560738508.853174924850 0.756702078902 0.272278466245 -0.317568870549 -0.179918746880 1.833638031240 -9.462336477401
1560738508.863174915314 0.763901902023 0.270326203698 -0.303396384388 0.046385494661 2.751675982379 -9.459849010398
1560738508.873174905777 0.753806198061 0.242099652841 -0.343518781504 0.031509218349 1.489995185606 -9.223865965558
1560738508.883174896240 0.625330371533 0.221539018732 -0.343145665860 -0.069513156801 2.431071995363 -10.040060979373
1560738508.893174886703 0.527800271604 0.224306705872 -0.376947066112 -0.100286179846 2.005145664170 -9.798499354588
1560738508.903174877167 0.396202009373 0.216789409955 -0.381967217443 -0.304035890055 1.731340547978 -9.889419863718
1560738508.913174867630 0.289910182468 0.234780935676 -0.369720831517 -0.155645339604 2.682259466811 -10.142082149163
1560738508.923174858093 0.285123617662 0.243568541831 -0.388012423581 -0.208274824834 0.985918643696 -9.534317756252
1560738508.933174848557 0.296663486629 0.275473276491 -0.320041738162 -0.234729553111 3.070821047846 -10.431601066046
1560738508.943174839020 0.415974889647 0.279085433157 -0.315461471105 -0.313605597224 1.647889149653 -10.174837559232
1560738508.953174829483 0.450559175066 0.291350704416 -0.299665953462 -0.359874938404 2.417826795558 -10.043879732524
1560738508.963174819946 0.581713619057 0.284091962755 -0.308994554155 -0.258059437408 2.527918448809 -10.214483973117
1560738508.973174810410 0.693013267470 0.279836933803 -0.289956953893 -0.288728460973 1.742620655325 -9.712559368994
1560738508.983174800873 0.831028623377 0.240648353133 -0.284438489377 0.005996353849 2.507916525352 -9.691131469612
1560738508.993174791336 0.927735898397 0.219481625863 -0.287432410005 0.003838862510 1.852528980468 -9.212294033025
1560738509.003174781799 0.982467195083 0.161946585942 -0.293455043611 0.137464796410 2.338804776308 -9.582320621707
1560738509.013174772263 1.000391821092 0.143190898007 -0.308758988729 -0.006648535856 2.047643292253 -9.841374045585
1560738509.023174762726 0.990285519616 0.113216845902 -0.317978700314 -0.004201073405 2.246399087643 -10.101631515043
1560738509.033174753189 0.928568631423 0.135233273812 -0.351286638528 -0.152808035634 1.839488182821 -10.284546567265
1560738509.043174743652 0.799478674613 0.164530121398 -0.362745700571 -0.128122833703 1.939912301939 -10.297944227164
1560738509.053174734116 0.698298115248 0.219521052079 -0.391240501393 -0.275512021338 1.798546575644 -10.189542710894
1560738509.063174724579 0.643686922000 0.271229228306 -0.373606406999 -0.034109066776 2.405996932197 -10.621536015661
1560738509.073174715042 0.666305230508 0.317807014067 -0.360704991818 -0.249408173250 1.868568467196 -10.248507821406
1560738509.083174705505 0.694105364778 0.339357644510 -0.359896489132 -0.191669015210 2.203961411460 -10.563339624895
1560738509.093174695969 0.718239785952 0.348240425764 -0.374835746632 -0.029336311369 2.038122477974 -10.096750143959
1560738509.103174686432 0.730282738221 0.341868791222 -0.374334564347 -0.397042540516 1.936330206102 -10.381756154408
1560738509.113174676895 0.710057945236 0.304340906816 -0.402081887505 0.208982098596 2.043506532878 -10.010387271529
1560738509.123174667358 0.673946426804 0.281952303100 -0.419825544918 -0.220438154478 1.689563321706 -10.274762452615
1560738509.133174657822 0.614039455183 0.238268031122 -0.454635580122 0.193349985660 2.048235761994 -10.114247713808
1560738509.143174648285 0.590140847867 0.193936323373 -0.456380987219 -0.097295979287 1.944227902821 -10.317901670894
1560738509.153174638748 0.561510230449 0.140869002647 -0.480817443510 0.079168463000 1.633661970037 -10.138152339726
1560738509.163174629211 0.495618776957 0.115965405229 -0.494939111142 -0.293778846482 1.839840831378 -10.408553613581
1560738509.173174619675 0.458962291583 0.071022354469 -0.528191909084 0.287132314288 2.009790058905 -10.086393034731
1560738509.183174610138 0.389109364382 0.043521737672 -0.520387111148 -0.105982801769 1.793677631291 -10.381628763636
1560738509.193174600601 0.356800007843 0.012789859813 -0.547344450834 0.054210223308 1.753716132561 -10.265080009382
1560738509.203174591064 0.318986473434 0.024650683441 -0.544832876103 -0.122846791135 1.867672714346 -10.455865825686
1560738509.213174581528 0.282202563126 -0.001314223366 -0.559925216512 0.204966323164 1.872442272061 -9.995138792698
1560738509.223174571991 0.339138141289 0.040019619874 -0.560535086633 -0.159539992191 2.173594577750 -10.677816688176
1560738509.233174562454 0.400459937112 0.067069198534 -0.554465675151 0.317445626504 1.732481086632 -10.340602422333
1560738509.243174552917 0.433566890648 0.117526698196 -0.545877726017 -0.400757558264 2.371957344645 -11.248713473927
1560738509.253174543381 0.594283272929 0.160588705894 -0.571921230730 0.342581707319 2.036560847426 -10.777554276968
1560738509.263174533844 0.737909258805 0.210840447372 -0.565915317423 -0.197945373120 2.227271854219 -11.605812020180
1560738509.273174524307 0.869819454479 0.280007537152 -0.583048320703 -0.060898635165 1.890472195410 -11.177840258463
1560738509.283174514771 0.912861500156 0.349589335320 -0.613903367256 0.083964523256 1.611619330248 -11.552491814115
1560738509.293174505234 0.900441527009 0.441508859368 -0.645810279225 -0.580552674194 2.192217982777 -11.848428234400
1560738509.303174495697 0.879372234430 0.524478233655 -0.659552731584 0.106215311450 1.515634040503 -10.799404947858
1560738509.313174486160 0.758033022949 0.587124029853 -0.715086640430 0.150938413512 1.741354424554 -11.162520958827
1560738509.323174476624 0.654393714221 0.671047970688 -0.716475928377 -0.621701051912 1.748159531014 -11.213024655087
1560738509.333174467087 0.565017639127 0.663023927026 -0.775926153873 1.067405554219 1.585782309514 -10.622828426022
1560738509.343174457550 0.433117750862 0.657172016783 -0.800952355825 -0.337693591592 1.736718869607 -11.410884266056
1560738509.353174448013 0.387924232016 0.606354517268 -0.843181020391 0.481174138050 2.045615895695 -10.861178498181
1560738509.363174438477 0.377332916905 0.495291770942 -0.858851131105 0.590409891670 1.346057833908 -10.954217145101
1560738509.373174428940 0.369714117067 0.413803198072 -0.897080800528 -0.175607016164 2.255671577913 -11.357033278411
1560738509.383174419403 0.407602204751 0.297258638795 -0.948240959139 0.410595061578 1.595092339670 -11.061741144395
1560738509.393174409866 0.382646948239 0.203045880396 -0.987467828660 0.278435622020 1.070240701233 -11.022439681710
1560738509.403174400330 0.348891579477 0.127040054264 -1.027396651591 0.051256095011 2.346748059441 -11.612055035082
1560738509.413174390793 0.419401679559 0.013723158798 -1.057099945172 0.094890133253 1.551667335474 -11.840093599112
1560738509.423174381256 0.425973347077 -0.018613964547 -1.062731707967 0.063100623185 1.924346334622 -11.440127436413
1560738509.433174371719 0.418508000000 -0.037296676480 -1.115225859419 0.063855646869 1.617595223973 -11.167591752841
1560738509.443174362183 0.421439612438 -0.049825308077 -1.141564950374 0.281542317224 1.474656068634 -11.339506280397
1560738509.453174352646 0.406770406259 -0.040011382366 -1.167467634369 0.013496273716 1.427201000634 -11.876403079244
1560738509.463174343109 0.438526917298 0.046572922466 -1.189169220672 -0.090678173505 1.776309517256 -11.825528676619
1560738509.473174333572 0.443458223423 0.119642997904 -1.221445501415 0.122376619370 1.579201851805 -11.589619451444
1560738509.483174324036 0.460997499827 0.197637730157 -1.244789050221 -0.078955868720 1.909227595778 -11.592173121222
1560738509.493174314499 0.529200965721 0.257099342026 -1.265269228021 0.032011915863 1.430593415382 -11.979541617167
1560738509.503174304962 0.579765840507 0.283972417928 -1.310901762099 0.110201011025 1.732398452781 -12.047904847025
1560738509.513174295425 0.640191292756 0.306964808036 -1.337958924225 0.137149460215 1.823917080207 -11.724858320948
1560738509.523174285889 0.648289843181 0.301787281342 -1.364271670025 0.232558319506 1.803312850188 -11.819890263358
1560738509.533174276352 0.618654097258 0.295499895622 -1.464414271511 -0.239008246929 1.460176641371 -11.996243278118
1560738509.543174266815 0.564875062718 0.285172496326 -1.507488908354 0.020007871002 1.619607456247 -11.440994686702
1560738509.553174257278 0.529863949842 0.235275312004 -1.559229629558 0.428910306565 1.310360182029 -11.238696068905
1560738509.563174247742 0.501812619616 0.196227392640 -1.607658875409 0.093977156372 1.646566820399 -11.615085826040
1560738509.573174238205 0.532380159750 0.119931641321 -1.644620184078 0.090079107855 1.720715359241 -12.313531152246
1560738509.583174228668 0.605239157471 0.045322626679 -1.695426361992 0.061563760915 1.388338554177 -12.134368405985
1560738509.593174219131 0.650172408386 -0.011317806739 -1.745144118023 0.296607875377 1.801724889107 -11.966722619409
1560738509.603174209595 0.688456815494 -0.060740892340 -1.786788072300 0.135336457083 1.917423609128 -12.147386424565
1560738509.613174200058 0.709888112927 -0.085361952050 -1.863506325154 -0.146467392417 1.231764274530 -12.295795917126
1560738509.623174190521 0.706170504072 -0.081656180894 -1.936872209939 -0.035412406117 1.683588835633 -12.191268471570
1560738509.633174180984 0.703955831919 -0.024380351789 -1.976031592522 -0.091106278028 1.419099173535 -11.807365386058
1560738509.643174171448 0.705272208664 0.045689715142 -2.034443511838 -0.310830122718 1.666047179760 -12.770860492251
1560738509.653174161911 0.714637607679 0.131196419792 -2.093928944161 -0.197199833910 1.248692143665 -12.066771181791
1560738509.663174152374 0.662148454618 0.233860328428 -2.140088667807 -0.074380526707 1.196298469808 -11.421725537637
1560738509.673174142838 0.596072969979 0.326322287615 -2.217369726771 -0.595103066508 1.865231690048 -13.307536408973
1560738509.683174133301 0.525098409953 0.430670129680 -2.298354971494 -0.082312730419 1.273805166224 -11.728086094905
1560738509.693174123764 0.485020186680 0.485966225771 -2.367269734501 -0.108280904260 1.752036639642 -12.454902836195
1560738509.703174114227 0.482129469825 0.506824080613 -2.436660550631 -0.101425180423 1.090213549952 -12.725676605817
1560738509.713174104691 0.430312601122 0.512967748538 -2.532814206160 0.015138741016 1.577413748990 -11.855027449315
1560738509.723174095154 0.404599447912 0.476169913627 -2.632623089829 -0.278525488593 1.484327176358 -13.024541738416
1560738509.733174085617 0.381751745888 0.409475262228 -2.698901176261 0.078973656798 1.437781186339 -12.068655962018
1560738509.743174076080 0.383274358864 0.340932131259 -2.781758421252 -0.155976431867 1.536452816275 -12.920284569366
1560738509.753174066544 0.378291104130 0.259308576989 -2.866035498556 0.142566496120 1.187157204279 -12.712464859469
1560738509.763174057007 0.353519396610 0.203073095837 -2.950886094708 -0.080195849234 1.612685077103 -12.363584853470
1560738509.773174047470 0.339461373877 0.164911507642 -3.035990037978 -0.309257913175 1.125598274717 -12.856413716325
1560738509.783174037933 0.274964037513 0.140076428664 -3.120635705067 -0.062026345593 1.342182460941 -11.955484755713
1560738509.793174028397 0.208332599765 0.182495298715 -3.173719200174 -0.759512839625 1.395394220058 -12.352923126565
1560738509.803174018860 0.145856483644 0.175295167567 -3.260808177830 -0.255116047523 0.665164190674 -12.072734390337
1560738509.813174009323 -0.014151090763 0.234147625323 -3.340046109503 -0.431922858393 1.415427910330 -11.847726448666
1560738509.823173999786 -0.095725648055 0.240273720252 -3.423213521098 -0.308875069311 0.976091632771 -12.345333474169
1560738509.833173990250 -0.190087567243 0.245684694300 -3.499158696800 -0.036853469042 1.404140299565 -12.292214690914
1560738509.843173980713 -0.238953492316 0.229272688997 -3.548713774884 -0.199399957401 1.443087690098 -13.220670351992
1560738509.853173971176 -0.241374735995 0.189285720471 -3.625423286113 0.322337326356 1.245700108174 -11.743987068160
1560738509.863173961639 -0.197829288171 0.142888613305 -3.633743484314 -0.633315091380 1.534921623923 -12.793913882424
1560738509.873173952103 -0.125705944570 0.071506575901 -3.698368990919 -0.151477219909 1.369288865965 -12.029602176594
1560738509.883173942566 -0.061635360765 -0.012076210637 -3.736451915844 -0.426053091445 1.264126886122 -12.606714721997
1560738509.893173933029 -0.011799312018 -0.079020061495 -3.802208093283 -0.262245926983 1.474442064585 -12.943128592098
1560738509.903173923492 0.033943996274 -0.120532347219 -3.788723400204 0.070708022284 1.100408771347 -11.061653683812
1560738509.913173913956 0.040269328665 -0.163708051889 -3.856986645823 -0.475218484393 1.562886460135 -12.359659226419
1560738509.923173904419 0.048810293804 -0.192205533546 -3.864265260186 -0.423409087236 0.980952269745 -12.131339089677
1560738509.933173894882 -0.008973267124 -0.213106550677 -3.881667554981 -0.322461380719 1.374369269979 -11.771004238380
1560738509.943173885345 -0.077276288042 -0.211640643548 -3.897173249564 -0.664089876992 1.077905285514 -12.674785751438
1560738509.953173875809 -0.168838831003 -0.226394333126 -3.894988433647 -0.306690379531 1.010992148585 -11.996692416501
1560738509.963173866272 -0.251924487503 -0.221637717250 -3.888585620475 -0.491034256138 1.443848401225 -11.798393705688
1560738509.973173856735 -0.311834628636 -0.229335593441 -3.875875365471 -0.580256428121 0.973453446850 -12.620415155597
1560738509.983173847198 -0.388336508959 -0.244566901171 -3.854281796938 -0.597431778391 0.876472556112 -11.876687979601
1560738509.993173837662 -0.464266339396 -0.279934164007 -3.825943450886 -0.258599907883 1.489336107542 -11.718734303783
1560738510.003173828125 -0.484926959054 -0.310741458595 -3.776639131505 -0.682190735230 1.095423464845 -12.348071640222
1560738510.013173818588 -0.489428989748 -0.347489371124 -3.722178738035 -0.749761621994 1.189225920967 -11.996468013666
1560738510.023173809052 -0.457330596826 -0.388191719771 -3.649690836652 -0.639323018932 1.223105734039 -12.198561155392
1560738510.033173799515 -0.401173871953 -0.412001754848 -3.589698786472 -0.803559697968 1.373380741850 -12.291911979398
1560738510.043173789978 -0.339169707695 -0.447529215550 -3.524551486306 -0.575604717704 1.371695946766 -12.047225740637
1560738510.053173780441 -0.271098541157 -0.517945642515 -3.438095607189 -0.460846897153 1.239521707513 -11.878093189343
1560738510.063173770905 -0.205104359195 -0.552357476106 -3.355011487413 -0.618710925744 1.293555403472 -11.843424046731
1560738510.073173761368 -0.103974521889 -0.590084959224 -3.275549025205 -0.779211057209 1.223761653987 -12.019926663767
1560738510.083173751831 -0.005272858495 -0.621127981655 -3.167009616091 -0.849581483945 1.157189625385 -12.196149968490
1560738510.093173742294 0.092906799592 -0.622054363109 -3.050994443891 -0.923824137013 1.592307805016 -12.088054955838
1560738510.103173732758 0.194632813038 -0.600464489769 -2.960074457697 -0.882483040300 1.151765393478 -11.712930681926
1560738510.113173723221 0.285674822727 -0.556196630291 -2.853516348367 -0.658569366160 1.169418018462 -11.673827466235
1560738510.123173713684 0.375697373048 -0.480905906648 -2.747804135505 -0.887768725610 1.040242438561 -12.189814354350
1560738510.133173704147 0.446655420154 -0.379859861799 -2.653972286917 -1.061774623998 1.463767462573 -12.436204790191
1560738510.143173694611 0.527892313112 -0.239876772253 -2.537715003600 -1.289718967398 1.369505448352 -12.209500767840
1560738510.153173685074 0.619179363478 -0.064187089524 -2.430339582665 -1.056595231480 1.223001817700 -11.947465100683
1560738510.163173675537 0.708819834577 0.124308496428 -2.335108498522 -0.802582070851 0.917720915642 -11.752460825686
1560738510.173173666000 0.766764033403 0.316642259585 -2.247753509160 -0.845956168771 1.384154769171 -11.625020729182
1560738510.183173656464 0.824559118671 0.493543176830 -2.150775731622 -1.655798514125 1.514665601718 -12.313907214640
1560738510.193173646927 0.880780818429 0.773970636044 -2.017309608587 -0.994759881824 1.063531470496 -12.231859558930
1560738510.203173637390 0.890011914297 0.911448288860 -1.942361840998 -0.524999746397 1.294498376332 -11.521359474742
1560738510.213173627853 0.872654804580 1.139574886485 -1.815907957682 -1.720333247330 1.058399476826 -12.568267567655
1560738510.223173618317 0.811160572499 1.280624373804 -1.700948894876 -0.669725069680 1.116700722459 -12.451650003663
1560738510.233173608780 0.704533632154 1.400049389424 -1.579743491360 -1.294627366002 1.150074587919 -12.127025259498
1560738510.243173599243 0.582115160694 1.517595572878 -1.479504998957 -0.748556355874 1.007413376041 -12.162710064370
1560738510.253173589706 0.471230620782 1.577676369411 -1.365754294017 -0.628796055382 0.857062101373 -11.739339000889
1560738510.263173580170 0.354247397397 1.665515673199 -1.236365732522 -1.646454958170 1.216695201366 -12.736104530153
1560738510.273173570633 0.223437154586 1.704780756203 -1.147452343548 -0.700067026976 1.081451573192 -11.545999082426
1560738510.283173561096 0.105725164535 1.738560918755 -1.013031675567 -1.322083291596 1.212202338718 -12.501147621793
1560738510.293173551559 -0.002080475897 1.744704724600 -0.950580036637 -0.512944686710 0.805589831920 -11.656718760858
1560738510.303173542023 -0.111355223159 1.756579312515 -0.804713578055 -1.181204373467 1.432006185529 -12.964047117060
1560738510.313173532486 -0.174799501193 1.769283176652 -0.700716757802 -1.010457440513 1.072055794519 -12.049173603536
1560738510.323173522949 -0.225437124838 1.712936783136 -0.610960123245 -1.474154667065 1.765171149799 -12.309315501913
1560738510.333173513412 -0.251386201912 1.727730222699 -0.514405183449 -0.630244738843 0.919062845351 -11.930726126902
1560738510.343173503876 -0.290706503950 1.683538914056 -0.395565580610 -0.977949750076 1.428608539220 -12.416275821762
1560738510.353173494339 -0.287929420084 1.643175062600 -0.305842098352 -1.251258012938 1.477285881632 -12.634716742924
1560738510.363173484802 -0.285646264965 1.586148116663 -0.228708089698 -0.939504366693 1.324908873981 -11.235902709515
1560738510.373173475266 -0.268187894548 1.538253876538 -0.116723067388 -0.961375341265 1.599085084537 -12.658221779500
1560738510.383173465729 -0.237607017634 1.449783734038 -0.070788982430 -0.685191140360 0.951736635986 -11.766153525678
1560738510.393173456192 -0.230362293418 1.398205798576 0.016912394942 -1.895827753277 2.155613397492 -12.424015766428
1560738510.403173446655 -0.184906691346 1.367002627141 0.084956564264 -1.129134898178 1.397953857932 -12.652519768705
1560738510.413173437119 -0.080375504931 1.271137894077 0.176898273609 -0.913714461882 1.616613087102 -11.355392811567
1560738510.423173427582 0.025016778523 1.279623987912 0.260635944905 -1.534758236013 1.641387771375 -12.580441265075
1560738510.433173418045 0.099220286567 1.206799238817 0.326910658784 -0.745689589557 1.524184210964 -11.932567712380
1560738510.443173408508 0.185181858082 1.174589840239 0.386769705882 -1.307432835301 1.865726456781 -12.188288782733
1560738510.453173398972 0.265341528598 1.128599492098 0.424471460544 -0.592383076578 1.172535263174 -11.384324225864
1560738510.463173389435 0.333475227494 1.018155146224 0.505655234522 -0.975774048365 2.084640949769 -12.464652116251
1560738510.473173379898 0.412473994428 0.931987232077 0.564467769561 -1.302851373937 1.436342677726 -11.565372621155
1560738510.483173370361 0.439725298916 0.762568479071 0.608841418231 -0.244832727446 1.738450272585 -11.598114274488
1560738510.493173360825 0.487092512358 0.633819984289 0.667978217558 -1.364644923937 1.749734795627 -11.356201476987
1560738510.503173351288 0.518664744842 0.482299613888 0.702045407503 -0.313969381107 1.236791565489 -11.401386563826
1560738510.513173341751 0.525755704195 0.312514828254 0.750165754358 -0.752054765006 1.879142415594 -11.004223679927
1560738510.523173332214 0.553820712271 0.175974599540 0.814321130939 -1.391020037483 1.624273841235 -11.795727086363
1560738510.533173322678 0.568727418156 0.043553427106 0.819051187604 -0.398976787918 1.824675617723 -10.937107152695
1560738510.543173313141 0.625474645334 -0.077607124596 0.894083776010 -1.511101214929 1.886776597270 -12.009523132707
1560738510.553173303604 0.665982800202 -0.141360640072 0.902028260002 -0.536746568450 1.596843339521 -10.879799010739
1560738510.563173294067 0.687230516645 -0.241134231494 0.925116784534 -0.747659099353 1.903851847373 -11.552902110296
1560738510.573173284531 0.707033852313 -0.295298615035 0.970240930928 -0.777253890450 1.805308499869 -11.240929329649
1560738510.583173274994 0.724192501750 -0.385936057314 0.985243820281 -0.436081430638 1.638106937715 -10.953340021839
1560738510.593173265457 0.723567016367 -0.409324081730 1.010036705250 -1.236644456405 2.166430694050 -11.154484203171
1560738510.603173255920 0.735560453332 -0.463554386551 1.026922750320 -0.567587508683 1.498779621283 -11.443235957910
1560738510.613173246384 0.697475344494 -0.548595182138 1.032156385050 -0.507344815612 2.297378663017 -11.397949851026
1560738510.623173236847 0.655778076256 -0.571319881272 1.029309295052 -1.228925769990 1.651572438124 -11.564477284045
1560738510.633173227310 0.580257118136 -0.665201048501 0.998039921420 0.067668010123 1.946338387933 -11.631678480589
1560738510.643173217773 0.505967052038 -0.722009569911 1.034850354228 -1.279584124294 2.165328435360 -11.539915378431
1560738510.653173208237 0.442743408061 -0.735511032153 1.015954237030 -0.448383595784 1.693492673064 -11.280722787110
1560738510.663173198700 0.370748460215 -0.810922515112 0.993556306690 -0.265871208660 2.293222651510 -10.495273243938
1560738510.673173189163 0.339586993406 -0.780240765029 1.026546099005 -1.360476751452 1.768035558943 -11.278788512899
1560738510.683173179626 0.288366694937 -0.781517201117 0.995106117777 -0.164310022671 1.942972837063 -10.853028293317
1560738510.693173170090 0.213897217458 -0.840760880829 0.961351391022 -0.566591514846 2.044652342042 -11.249912726136
1560738510.703173160553 0.131736561381 -0.852496507088 0.951656497233 -0.704060696862 2.028790805789 -11.192057411220
1560738510.713173151016 0.122606943280 -0.912010840685 0.951421326251 0.011314948470 1.998325262949 -10.846819726820
1560738510.723173141479 0.096606564102 -0.924535371532 0.927835347755 -0.756791185710 2.192688308326 -10.861278228804
1560738510.733173131943 0.120785005944 -0.930649302045 0.916922736083 -0.849018731190 2.297083694512 -10.938781987698
1560738510.743173122406 0.127774427886 -0.930363285453 0.897659414071 -0.028499640716 2.010866031168 -10.396624279816
1560738510.753173112869 0.121452722575 -0.897463133374 0.880795930167 -0.418230666970 2.070941301719 -10.427777025045
1560738510.763173103333 0.079439521886 -0.844338651686 0.844000854992 -0.467958518194 2.317807391268 -10.691491286882
1560738510.773173093796 0.029552308686 -0.776335782573 0.809010712434 -0.167675983827 2.038081669351 -10.163471712429
1560738510.783173084259 -0.031075397134 -0.720840526626 0.778313328697 -0.139728997029 1.937877794808 -10.201793914162
1560738510.793173074722 -0.089879592788 -0.613161541830 0.723819641763 -0.773077886829 2.055894943310 -10.888797713113
1560738510.803173065186 -0.158614063094 -0.511265781046 0.697748139201 -0.231227170257 2.202443907963 -10.469109739749
1560738510.813173055649 -0.224953300001 -0.416677185364 0.662425385608 -0.040370985015 2.036068853333 -9.936171933745
1560738510.823173046112 -0.261815125795 -0.338531465767 0.626547224705 -0.171718644227 2.215277038533 -10.052727736471
1560738510.833173036575 -0.251321255227 -0.263689058341 0.602192602458 -0.213695675727 1.984673764444 -10.291119846801
1560738510.843173027039 -0.249287563947 -0.192185533061 0.547958003276 -0.297642381342 2.462703570384 -10.299870045522
1560738510.853173017502 -0.220317900658 -0.139239415654 0.480596008306 -0.096767913655 1.951158077592 -10.391500428799
1560738510.863173007965 -0.210717195073 -0.115422189523 0.418763479144 0.107594443712 2.368551797210 -10.196844615246
1560738510.873172998428 -0.157489161233 -0.089355548789 0.371386272162 0.011811135775 2.196729099022 -10.039145717223
1560738510.883172988892 -0.102638585767 -0.066478024631 0.333220618442 -0.161233304393 2.300811572259 -10.055566786702
1560738510.893172979355 -0.062520435307 -0.044487144365 0.287740177569 -0.136806918640 2.561038283361 -9.922784852943
1560738510.903172969818 -0.051547695703 -0.044166011451 0.221051973760 0.298716481430 2.006831657066 -9.412225801330
1560738510.913172960281 -0.074513294913 -0.044934996499 0.155112390083 0.281566187354 2.195348120864 -9.505622409382
1560738510.923172950745 -0.096217316465 -0.036854454111 0.104895531881 0.145997351675 1.817945664742 -10.215212405201
1560738510.933172941208 -0.132535403298 -0.047149755792 0.026299048713 -0.049873922848 2.601177156201 -10.165982062063
1560738510.943172931671 -0.122805249710 -0.052479072907 -0.017851729528 0.187423192543 2.105305801948 -9.848949984928
1560738510.953172922134 -0.130292845920 -0.047516783098 -0.067090268472 0.175432337641 2.364355849040 -9.885019499291
1560738510.963172912598 -0.124499423650 -0.033090650197 -0.111526162627 0.198876320138 2.402013010676 -9.429709890052
1560738510.973172903061 -0.123690652446 -0.033246036227 -0.169646482973 0.332241018135 1.670200967989 -9.510528373556
1560738510.983172893524 -0.124347606356 -0.030269854523 -0.231818254844 0.081359268890 2.544546885844 -9.817123236480
1560738510.993172883987 -0.075384193046 -0.018773077335 -0.266803884719 -0.147671932514 1.781152349059 -9.203780441055
1560738511.003172874451 -0.005731197989 -0.053742648504 -0.350746138949 0.234359208625 2.434156599580 -9.410815105358
1560738511.013172864914 0.081556665529 -0.056745295137 -0.397605960784 0.004771644189 2.308880905036 -9.291659868016
1560738511.023172855377 0.161361969966 -0.089998410238 -0.437592127890 0.478069903362 2.333287952027 -9.009285298855
1560738511.033172845840 0.224802243948 -0.120300953470 -0.485142041190 0.474761306658 2.722335831757 -9.379048798118
1560738511.043172836304 0.313371451121 -0.153339270317 -0.528620923529 0.074539242883 2.161648636000 -9.338810197373
1560738511.053172826767 0.369288342365 -0.176356357756 -0.589869724418 0.023564748527 2.382161936836 -9.407768673996
1560738511.063172817230 0.425589790857 -0.190748967244 -0.645388770133 -0.203639716665 2.319193119016 -9.280239341064
1560738511.073172807693 0.443726367130 -0.202218428780 -0.690199046846 0.210074747863 1.979601348423 -9.068079226624
1560738511.083172798157 0.426659839179 -0.226887523927 -0.743520569763 0.401346818823 2.528428508315 -9.107417106739
1560738511.093172788620 0.454345583672 -0.233413277134 -0.775642840520 0.302833817045 2.557847161227 -8.958145803705
1560738511.103172779083 0.484561943063 -0.265391822336 -0.837340685323 0.343380365750 2.086863924500 -9.547486793089
1560738511.113172769547 0.489649423205 -0.257799244037 -0.889251479968 -0.129417510317 2.415218613592 -9.569580273290
1560738511.123172760010 0.486525731846 -0.246589304509 -0.933677853202 -0.049276632758 2.171200156009 -9.555095712215
1560738511.133172750473 0.491720522815 -0.242982314577 -0.988136692788 -0.113729201821 2.409539066550 -9.401516066075
1560738511.143172740936 0.512830044321 -0.231952517951 -0.990847618613 0.168212778189 2.498666789133 -8.981338264677
1560738511.153172731400 0.578929243041 -0.247424905430 -1.009768986533 0.244535452331 2.709191694429 -8.953272096048
1560738511.163172721863 0.684197747474 -0.262030492675 -1.046556329939 0.100256027200 2.436300311917 -8.875595778687
1560738511.173172712326 0.768220835486 -0.286869068442 -1.081772239142 0.012699376634 2.305243870096 -9.009128485277
1560738511.183172702789 0.868643002280 -0.294872921342 -1.095894547264 0.145613608689 2.778285138284 -8.697654068915
1560738511.193172693253 0.969410759840 -0.318362284267 -1.119372160160 0.243716434525 2.419938109557 -9.007958578888
1560738511.203172683716 1.052554560362 -0.316463964858 -1.131925012005 -0.038848618897 2.545387896213 -9.141192629520
1560738511.213172674179 1.110429389924 -0.293773384364 -1.159746628963 -0.172640742352 2.658702879366 -9.103346096395
1560738511.223172664642 1.172937605635 -0.253609914921 -1.173570962299 -0.197039139473 2.094073494649 -8.729149151685
1560738511.233172655106 1.211275147892 -0.200412862941 -1.189457246973 0.124610073672 2.859707601249 -8.617124309858
1560738511.243172645569 1.271748420349 -0.141672359100 -1.191873917846 -0.043334273284 2.498452313445 -9.084154525149
1560738511.253172636032 1.302464428693 -0.070951338438 -1.191978649044 -0.321445541769 2.306595342715 -9.193197444075
1560738511.263172626495 1.281453120426 0.011428715506 -1.210219592789 -0.142652701794 2.561067251143 -9.285153770010
1560738511.273172616959 1.281955000106 0.094196441085 -1.212492727420 -0.382923499019 2.637531781574 -9.272923790983
1560738511.283172607422 1.228072026915 0.172464972405 -1.224776250410 -0.316101483728 1.824501883839 -9.773430250140
1560738511.293172597885 1.087572428840 0.245227499556 -1.220676769295 -0.052837350760 2.863232609682 -9.404792624365
1560738511.303172588348 1.007175067845 0.279439201826 -1.219264861453 0.215977589939 2.046352068915 -9.155595601413
1560738511.313172578812 0.964757218274 0.337179608931 -1.205764996800 -0.498199442461 2.819069328057 -9.817770312848
1560738511.323172569275 0.926900732787 0.359913717133 -1.191078868357 0.041516983923 2.405208368334 -9.146663640959
1560738511.333172559738 0.887671813000 0.361078406238 -1.191287323026 -0.162104898585 2.518146645915 -9.464962309274
1560738511.343172550201 0.830504549238 0.387697127107 -1.179036221796 -0.632143732976 2.163802260147 -9.586676735813
1560738511.353172540665 0.773584046041 0.403218778835 -1.172264414046 -0.035824432109 2.755403576192 -9.058853826654
1560738511.363172531128 0.770213704389 0.420905219951 -1.150834519357 -0.597507267489 2.232663226442 -9.095688365353
1560738511.373172521591 0.737511788601 0.449998377937 -1.134355606525 -0.589362739323 2.250163320836 -9.187126753765
1560738511.383172512054 0.698312442520 0.438874093738 -1.118157707820 0.074553291168 2.341001687300 -8.739630380620
1560738511.393172502518 0.633321684982 0.431411278248 -1.096282612074 -0.572282580717 2.567208790560 -9.300893909559
1560738511.403172492981 0.644231872001 0.436441606459 -1.072782502717 -0.233928665450 2.366603996175 -8.691794378640
1560738511.413172483444 0.601893848324 0.411562358329 -1.050933621280 -0.184547903108 2.495699820906 -9.166295494765
1560738511.423172473907 0.582738654516 0.434924868186 -1.034551766233 -0.662699614809 2.023814146405 -9.242966991142
1560738511.433172464371 0.522969830348 0.421592594414 -1.023975111264 0.279225180531 3.020269095141 -8.928501196734
1560738511.443172454834 0.505459069401 0.460789063839 -0.978506447639 -0.793775684304 1.909716425475 -9.457306837093
1560738511.453172445297 0.385335317987 0.451161581620 -0.964056698023 -0.157212827256 2.290794801292 -9.388434184940
1560738511.463172435760 0.368941968937 0.449121366679 -0.903661807192 -0.766584393472 2.955543202619 -9.889580289284
1560738511.473172426224 0.456351567438 0.475125179142 -0.863999883781 -0.578343798027 2.236917575162 -9.402753460852
1560738511.483172416687 0.612537537313 0.499967001443 -0.813990761538 -0.389534487379 3.387397237199 -10.001208014672
1560738511.493172407150 0.840183580714 0.537231898864 -0.762444270536 -0.495718433495 2.230444713695 -9.025438642235
1560738511.503172397614 0.987978259371 0.543409182543 -0.740850613863 -0.242108001562 3.013515385305 -9.143927096171
1560738511.513172388077 1.221207033239 0.580590539522 -0.711100227322 -0.948741467456 2.807951525300 -9.792040310932
1560738511.523172378540 1.325929314484 0.586488310948 -0.696732421543 -0.033935280000 2.435631285301 -9.027814851954
1560738511.533172369003 1.358138781063 0.559496895614 -0.656224006333 -0.530764871528 2.464134674981 -9.337932520923
1560738511.543172359467 1.333317434918 0.542774716315 -0.661019304680 -0.708870432448 1.921225250522 -9.126961568534
1560738511.553172349930 1.264022068669 0.504308644144 -0.628069939901 -0.404138404058 2.769059427047 -9.373930775253
1560738511.563172340393 1.231110588922 0.464817660661 -0.591127816959 -0.382083291799 1.839534591161 -9.063552688441
1560738511.573172330856 1.160712266359 0.435403228274 -0.542014185074 -0.408828895155 2.389817815198 -9.248907754589
1560738511.583172321320 1.119461403642 0.412894080417 -0.517706312349 -0.514193775595 2.270354489934 -8.638021866669
1560738511.593172311783 1.070339568065 0.413897230028 -0.489083970617 -0.358095741399 2.785959204073 -9.553626694192
1560738511.603172302246 0.979098632560 0.378604083532 -0.439989920262 -0.493389805241 1.843301903443 -9.683021782254
1560738511.613172292709 0.845528017327 0.353069466254 -0.410267325345 -0.298042574585 2.565271635391 -9.352727982873
1560738511.623172283173 0.799272082711 0.330408240960 -0.343999398593 -0.777635835911 1.734710306856 -9.420433434010
1560738511.633172273636 0.721091728245 0.337834828510 -0.327473845143 -0.447789709538 2.555176790880 -9.408066043880
1560738511.643172264099 0.736577667168 0.344783868447 -0.279841259165 -0.657256779317 2.198231792413 -9.489275827185
1560738511.653172254562 0.699921900679 0.361574354645 -0.236885354043 -0.408436300219 2.090720982857 -9.500287050404
1560738511.663172245026 0.688347267473 0.368379676433 -0.220586679277 -0.458191427150 2.501092181850 -9.231428014860
1560738511.673172235489 0.662888773257 0.389358520005 -0.200400010103 -0.806033630286 1.671361346637 -9.063280256796
1560738511.683172225952 0.581117501165 0.378387625533 -0.155763092402 -0.112002226281 2.948691070509 -9.899964785248
1560738511.693172216415 0.523013737111 0.341790261579 -0.129614443413 -0.451873341320 1.783235009543 -9.271743395279
1560738511.703172206879 0.420724838574 0.310238456616 -0.128630576010 -0.440665540261 2.591808733118 -9.054827460872
1560738511.713172197342 0.382306626651 0.280010708698 -0.089188086387 -0.585033401855 1.686042109304 -9.560460237974
1560738511.723172187805 0.286739332044 0.237989515980 -0.060371976354 -0.094678710783 2.497161215940 -9.420130551505
1560738511.733172178268 0.242087057647 0.206932961753 -0.042607441715 -0.488661021664 1.985160699046 -9.025748378409
1560738511.743172168732 0.148337745555 0.176053866693 -0.029774392232 -0.549093153808 1.727672117583 -9.113887966440
1560738511.753172159195 0.056609821584 0.141330749611 0.010619170700 -0.226601257714 2.045537866418 -9.574167874057
1560738511.763172149658 0.037509491119 0.105196978019 0.044734072528 -0.241876257569 2.833757106877 -9.475670108876
1560738511.773172140121 0.172245762008 0.107037001874 0.074653239472 -0.698453257703 2.028138239924 -9.298370791887
1560738511.783172130585 0.282240670830 0.136668746629 0.102512143079 -0.357680542794 2.318417635780 -9.599801082227
1560738511.793172121048 0.434782462493 0.161960062370 0.160798136518 -0.297325881389 2.811599438222 -9.582737082491
1560738511.803172111511 0.555095647330 0.191672900740 0.158369407476 -0.730269607152 1.534070853972 -8.782100460554
1560738511.813172101974 0.601190916579 0.244772555695 0.167017717727 -0.420241682386 2.869884903838 -9.804544165063
1560738511.823172092438 0.719717762030 0.249352380225 0.205789462132 -0.243754550774 2.054682179262 -9.397605526257
1560738511.833172082901 0.708699649377 0.255919115521 0.196157390167 -0.335580170915 2.220266917861 -8.828228731586
1560738511.843172073364 0.745150425868 0.256906298981 0.225758979520 -0.529374886665 2.023541090619 -9.844516921647
1560738511.853172063828 0.693554900504 0.236283505337 0.229663847802 -0.003698214579 2.219941358482 -9.415218682935
1560738511.863172054291 0.658311982753 0.189127324184 0.227709617334 -0.205895035555 1.927522458525 -9.250999147722
1560738511.873172044754 0.585021257420 0.166613151306 0.228040637014 -0.528045093242 1.730470976597 -9.418332513142
1560738511.883172035217 0.517436708617 0.142072643035 0.247219795963 -0.082255808440 2.426859096912 -9.749229641404
1560738511.893172025681 0.508828114910 0.108607130057 0.247782159121 -0.268249110679 1.855875475109 -9.711781076266
1560738511.903172016144 0.476623498354 0.089866924061 0.252337181361 -0.105535039976 2.099048451599 -9.124265220220
1560738511.913172006607 0.452835680494 0.100172449392 0.252987984589 -0.375436229730 1.703152587588 -9.467931543844
1560738511.923171997070 0.365927392774 0.085995806061 0.243419762292 -0.281109018592 2.214021553714 -9.420327123920
1560738511.933171987534 0.367153310172 0.095969006327 0.243228342751 -0.377505290429 1.978803907379 -9.496644328576
1560738511.943171977997 0.364062037634 0.101794459445 0.262507558781 -0.104739418105 2.337121034414 -9.584015533928
1560738511.953171968460 0.346210838159 0.118500521821 0.267878884395 -0.148953177387 1.838856965806 -9.322894712335
1560738511.963171958923 0.278465695481 0.105301666004 0.223761997322 -0.187994801856 1.691067586119 -9.062173136139
1560738511.973171949387 0.192631630227 0.103070249089 0.217181173330 -0.224975195209 2.151986453993 -9.603378493500
1560738511.983171939850 0.140302087594 0.090558000532 0.211091220733 -0.194011489816 2.113851718099 -9.755325213688
1560738511.993171930313 0.144495114714 0.074025671143 0.199054611797 -0.164990911174 1.759107712694 -9.450597939321
1560738512.003171920776 0.132204357001 0.061161243153 0.211184693092 -0.091774265648 2.202308754095 -9.491354655946
1560738512.013171911240 0.199504358308 0.058651502499 0.220558856616 -0.120971681817 2.922055652907 -9.540126232938
1560738512.023171901703 0.258776269272 0.022795807795 0.180583879921 -0.043287538297 1.554197841128 -9.198375181923
1560738512.033171892166 0.288923077905 0.024577392923 0.187845612761 -0.205654740452 2.633326088452 -9.682230481516
1560738512.043171882629 0.331881899689 0.005112586487 0.149881067525 -0.009599814547 1.685956862905 -9.532708834346
1560738512.053171873093 0.315009239225 0.013061605596 0.148752419510 -0.035682978738 2.247441754915 -9.749589207685
1560738512.063171863556 0.350765499872 0.011873796489 0.141447000955 -0.033724649201 2.257546423487 -9.831319829739
1560738512.073171854019 0.321468066512 0.022526189720 0.108577379242 -0.040144132803 1.554422441438 -9.397605300602
1560738512.083171844482 0.214673739765 0.042117544823 0.101173561122 -0.142112273409 2.132596708882 -10.028727962962
1560738512.093171834946 0.113414871110 0.057812664886 0.049743049795 0.041368216342 1.786698856059 -9.839986443140
1560738512.103171825409 0.077924107148 0.070950802923 0.066566201725 -0.015152565998 1.952555161798 -9.800323388168
1560738512.113171815872 -0.000691106467 0.097786207672 0.032936520302 -0.142899306067 2.110718081128 -10.021667864666
1560738512.123171806335 -0.018206867688 0.124790965881 0.022458027145 -0.020945108981 1.745028865169 -9.581131258209
1560738512.133171796799 -0.071214211234 0.134516104252 0.002213536948 -0.036875920287 2.026736542395 -9.883348822457
1560738512.143171787262 -0.078201134555 0.134877580504 -0.030725294953 0.057768117046 1.932512681243 -9.440834099436
1560738512.153171777725 -0.105467788317 0.126589481303 -0.036735890671 -0.131651993255 1.854644745069 -9.650443687429
1560738512.163171768188 -0.072398940647 0.094328894593 -0.069369440790 0.153982260056 2.254341832590 -9.272758937136
1560738512.173171758652 -0.028161394683 0.077227224783 -0.073629029621 -0.312660665731 1.283205763649 -9.599040254350
1560738512.183171749115 -0.007834765381 0.033331539245 -0.133206148926 0.444464689211 2.679431765295 -9.235560266994
1560738512.193171739578 0.079465399151 0.012142508535 -0.109674946695 -0.021110258514 2.408961808458 -9.920466273278
1560738512.203171730042 0.240856794088 -0.040452291078 -0.153670097126 0.360664580069 1.930954236056 -9.512221162586
1560738512.213171720505 0.315493468071 -0.062297989151 -0.166952322869 -0.027522168130 2.553679259747 -10.438375801553
1560738512.223171710968 0.476891942288 -0.061985347251 -0.205187483724 -0.125685818961 1.816291375683 -9.989926011986
1560738512.233171701431 0.564147268004 -0.044063993972 -0.231286496820 -0.033852897030 1.999583868855 -10.083509987064
1560738512.243171691895 0.628825285557 0.021078394201 -0.244853638629 -0.317593430997 2.043443784596 -9.974981921321
1560738512.253171682358 0.602676242313 0.070600856248 -0.298257245157 0.489719291884 1.449523027912 -9.478226677053
1560738512.263171672821 0.463275791130 0.122230393366 -0.340550709910 0.026637335393 1.795887560587 -10.111527270041
1560738512.273171663284 0.357748320834 0.194945716134 -0.380344457317 0.104359960942 1.887586313546 -9.981922658000
1560738512.283171653748 0.256726787225 0.232224548957 -0.409176924146 0.360569028561 1.524723912881 -10.197913066720
1560738512.293171644211 0.218073733996 0.278800495268 -0.410553922800 -0.619761339036 1.948261399702 -10.504581801718
1560738512.303171634674 0.163673633689 0.288597178171 -0.486236573768 0.233036166929 1.610894703798 -9.926053402956
1560738512.313171625137 0.169831767005 0.276078134333 -0.486233609096 -0.581580632780 2.108745246610 -10.656664807489
1560738512.323171615601 0.236737753968 0.228098090316 -0.525852742054 0.364125333846 1.716608884801 -9.735869641795
1560738512.333171606064 0.259458714653 0.148486735114 -0.551272563775 0.159276731568 1.750344741282 -9.869627260940
1560738512.343171596527 0.303537521077 0.078453121861 -0.591603528236 -0.165489290805 2.290624798916 -10.211872029554
1560738512.353171586990 0.345951105718 -0.047050854288 -0.619263503228 0.701780017396 1.628101444303 -9.438383227203
1560738512.363171577454 0.397409482890 -0.150760050096 -0.641160025550 0.173055396789 2.229979560815 -10.272075841389
1560738512.373171567917 0.482640835612 -0.220704656862 -0.665515540047 -0.121285954936 1.905811421873 -10.389002565554
1560738512.383171558380 0.538801566496 -0.268746999539 -0.695852232723 0.182516450963 1.683072578372 -9.794834799758
1560738512.393171548843 0.523443831090 -0.295271874282 -0.748497894394 -0.096771769712 1.642866428515 -9.968885107415
1560738512.403171539307 0.483945467997 -0.269964338476 -0.769749908298 -0.266674195499 1.561409402917 -10.025258657786
1560738512.413171529770 0.413997560875 -0.226618577750 -0.798399211142 0.106850387282 1.761791547378 -9.734086020535
1560738512.423171520233 0.261979381189 -0.163389669246 -0.840704436776 0.213287768737 1.457443597059 -9.774812608167
1560738512.433171510696 0.133940887943 -0.039859350615 -0.851503711520 -0.108307470743 1.805642034782 -10.148506259703
1560738512.443171501160 0.039202397621 0.055728268932 -0.899880621883 0.156465478372 1.528311084714 -10.044907534327
1560738512.453171491623 -0.037783457284 0.152136498712 -0.913496417605 -0.477876916013 1.387448182799 -10.372260559707
1560738512.463171482086 -0.042947262433 0.216899220644 -0.939444299871 -0.252320618541 1.915758449364 -9.998897311834
1560738512.473171472549 -0.020881191441 0.205018314760 -0.965731407070 0.465811522905 1.601437247577 -9.889460848292
1560738512.483171463013 0.026634397793 0.196955188966 -0.970237947365 -0.194416764511 1.838532635027 -10.340106624293
1560738512.493171453476 0.104552400455 0.140427029444 -0.994845977878 0.306116613015 1.930438287613 -10.192815864960
1560738512.503171443939 0.146417269329 0.078277557254 -1.029005781542 0.288360728250 1.426097245416 -9.961998537340
1560738512.513171434402 0.153715589010 0.031115646017 -1.082595476131 -0.181319427342 1.738314471902 -10.235949922456
1560738512.523171424866 0.164808901112 0.002849719584 -1.101853372995 -0.173328662538 1.534204712600 -10.002758759652
1560738512.533171415329 0.162215843232 -0.021313714804 -1.109878856332 0.111689593183 1.783277104675 -9.568649607179
1560738512.543171405792 0.168442806378 -0.043793640801 -1.134234232975 0.343566981725 1.536417412934 -9.729299207280
1560738512.553171396255 0.162176178071 -0.048885541601 -1.137140838626 0.092509348738 1.528275243830 -10.311339330591
1560738512.563171386719 0.149872357035 -0.044435711900 -1.146297366418 -0.150968533983 2.266514040196 -10.615360905870
1560738512.573171377182 0.136236821931 -0.014292587668 -1.197112752603 -0.000974994639 1.208320825722 -9.989452651380
1560738512.583171367645 0.094641121765 0.045374864034 -1.206681295632 -0.327089208776 1.806900602983 -10.439600582047
1560738512.593171358109 0.099067060939 0.114249025814 -1.218948844294 -0.412034749451 1.473272196886 -10.390586465146
1560738512.603171348572 0.097714990572 0.159138534364 -1.219636087463 0.021371257247 1.567568591784 -9.789757714303
1560738512.613171339035 0.079374088854 0.173065546379 -1.217829087823 0.209615646530 1.563154117335 -9.880471153052
1560738512.623171329498 0.043378048805 0.182126675014 -1.231999434844 -0.195397674056 1.439051265607 -10.460018384248
1560738512.633171319962 -0.006499267816 0.193468771329 -1.249421725517 -0.028414459164 1.668021113244 -10.224829821897
1560738512.643171310425 -0.016756286118 0.154961246416 -1.271233215554 0.083309740603 1.567620574967 -10.038174177025
1560738512.653171300888 0.022131764051 0.114310653136 -1.268210282602 -0.201613701508 1.448080603579 -10.423707170200
1560738512.663171291351 0.077039693081 0.062030724113 -1.270939711559 -0.220126130894 1.829774392274 -10.296971970108
1560738512.673171281815 0.161306161370 -0.011904521343 -1.285789981155 0.106609289228 1.588666262955 -9.940621074681
1560738512.683171272278 0.205568482580 -0.074837081784 -1.269960652040 0.113085548479 1.589454367686 -9.602244424487
1560738512.693171262741 0.255953459752 -0.163494246009 -1.301927093025 0.270049045759 1.542528803195 -9.988409569888
1560738512.703171253204 0.275547921964 -0.194107710682 -1.308426379939 -0.105189574318 1.708011557140 -10.338776509932
1560738512.713171243668 0.344729810706 -0.217129502152 -1.304876631213 -0.079711001938 1.531119621114 -10.069914692532
1560738512.723171234131 0.303810116251 -0.206238220940 -1.329902098606 -0.041359869276 0.961603937906 -9.967265197240
1560738512.733171224594 0.230788381962 -0.142067979911 -1.345222900016 -0.301375662642 1.737238809161 -10.490668052362
1560738512.743171215057 0.225353689619 -0.044193290098 -1.326044889191 -0.519997342340 1.455367837132 -10.394646100391
1560738512.753171205521 0.227026710738 0.044514599767 -1.309945797962 -0.060142279607 1.361801908562 -9.740837542031
1560738512.763171195984 0.251452240728 0.131912712616 -1.304915075108 -0.373541569086 1.648174842026 -10.126560194065
1560738512.773171186447 0.267919218155 0.194104958186 -1.291511360681 -0.361334801763 1.270470967071 -10.320094087863
1560738512.783171176910 0.283996525534 0.224879686421 -1.278888590902 0.052448321991 1.753335325276 -10.181197107789
1560738512.793171167374 0.333977638534 0.205605271006 -1.268971742729 0.044293754562 1.458399961024 -10.037742805304
1560738512.803171157837 0.419443438993 0.154994282596 -1.270579047546 -0.071371877113 1.699767534127 -10.758850624472
1560738512.813171148300 0.517577422426 0.115186846925 -1.261941710272 -0.229638651140 1.856057091759 -10.544506987821
1560738512.823171138763 0.590844721426 0.046120305322 -1.260050868066 0.018357233046 1.314033189529 -10.138831231980
1560738512.833171129227 0.627738267136 -0.028800937262 -1.266541426656 -0.047621142880 1.622914943510 -10.310021023762
1560738512.843171119690 0.641747346394 -0.081556903813 -1.275510635256 -0.131957428452 1.295952097667 -10.526876977609
1560738512.853171110153 0.576908269739 -0.116311929808 -1.285362902610 -0.401061943985 1.305252861124 -10.750648709663
1560738512.863171100616 0.500853732529 -0.117611346118 -1.290553639455 -0.312388563877 1.538736102769 -10.027810656174
1560738512.873171091080 0.413845976031 -0.130726960951 -1.322503301575 0.330168855765 0.776147243389 -9.623364842109
1560738512.883171081543 0.331671673386 -0.092263310672 -1.281184760245 -0.592686538480 1.476553071163 -10.594809841039
1560738512.893171072006 0.329775656049 -0.041389850210 -1.258923405230 -0.409703173190 1.606865342113 -10.222841385332
1560738512.903171062469 0.341508414959 -0.012665613076 -1.251945241956 -0.158029067187 1.188392707053 -10.095459789462
1560738512.913171052933 0.339382548722 0.042710494559 -1.251660298406 -0.526956230973 1.346485695477 -10.504119246310
1560738512.923171043396 0.377778865762 0.101398650005 -1.244289058396 -0.398243165070 1.647853556617 -10.451450562131
1560738512.933171033859 0.441677471420 0.130314116717 -1.214476891457 -0.102280128540 1.298960827378 -9.825902080087
1560738512.943171024323 0.487800635500 0.124509817572 -1.214634781625 -0.150617580419 1.375929307052 -10.399524484570
1560738512.953171014786 0.564986862495 0.123250263669 -1.210301617189 -0.377254012448 1.687286966053 -10.533208042187
1560738512.963171005249 0.639622291815 0.092129647773 -1.200259006735 -0.237582803504 1.410173357441 -10.065917504066
1560738512.973170995712 0.677681425284 0.049792617982 -1.200102437676 0.246343775410 1.660570653725 -10.253126542181
1560738512.983170986176 0.751943711065 -0.024001895777 -1.197924615282 -0.130238066300 1.219720699009 -10.167584414275
1560738512.993170976639 0.767058997814 -0.073533102895 -1.191252114730 -0.097392020930 1.511212510222 -10.634377234537
1560738513.003170967102 0.799169076237 -0.110511017685 -1.190456450020 -0.408975935013 1.537440285039 -10.608017357388
1560738513.013170957565 0.787418950788 -0.136804011397 -1.194826643650 -0.069388141620 1.008971255874 -9.888759972113
1560738513.023170948029 0.735285890074 -0.163796277851 -1.212424134886 -0.084046988952 1.175092064970 -10.628027327324
1560738513.033170938492 0.681641651201 -0.133457326283 -1.212873460477 -0.631865151605 1.438658767270 -10.671055520598
1560738513.043170928955 0.607829263779 -0.095187338146 -1.207584003844 -0.209815636338 1.042531141859 -10.129168711183
1560738513.053170919418 0.513580308136 -0.048428827599 -1.214674933848 -0.165372906633 1.124730067186 -10.295438449053
1560738513.063170909882 0.443950271667 0.015886347635 -1.208919436963 -0.629612503360 1.239719714682 -10.529239757215
1560738513.073170900345 0.386445221464 0.070844548852 -1.213034656854 -0.289096270230 1.276147417428 -10.457091004864
1560738513.083170890808 0.330332825196 0.112882872573 -1.196318271855 -0.176349738308 1.099084851624 -9.984684024346
1560738513.093170881271 0.306251335717 0.138862974177 -1.209991848525 -0.517779518609 1.250748942667 -10.649168902397
1560738513.103170871735 0.315941596107 0.163299006301 -1.202721273993 -0.494259819654 1.514303383891 -10.474857053639
1560738513.113170862198 0.313064398623 0.147818371913 -1.195337026773 -0.079108410615 1.097680722439 -9.922178303261
1560738513.123170852661 0.314889819348 0.105020811028 -1.216833915077 -0.253079318923 1.156112018546 -10.420500491167
1560738513.133170843124 0.301115220376 0.063568200561 -1.224989502199 -0.412196925475 1.354239974391 -10.433199675648
1560738513.143170833588 0.308861238181 0.008955326837 -1.223824494011 -0.218513494449 1.400133501634 -10.491025155127
1560738513.153170824051 0.305447325640 -0.059714543108 -1.226058773583 -0.289037714868 1.046536315516 -9.970887450397
1560738513.163170814514 0.267266875850 -0.128415045457 -1.258198800429 -0.061604873331 1.152731118913 -10.007054650754
1560738513.173170804977 0.258464204650 -0.184957252957 -1.259827760884 -0.292427395600 1.240486204334 -10.669470325574
1560738513.183170795441 0.224040547366 -0.206861308350 -1.263153688315 -0.418191668412 1.238361774070 -10.238681562390
1560738513.193170785904 0.177765717298 -0.220661609620 -1.282473295202 -0.259765165330 1.144433739215 -10.020391111935
1560738513.203170776367 0.118046161446 -0.218328109188 -1.292901627264 -0.182030213961 0.856516723394 -9.982956140448
1560738513.213170766830 0.052137432657 -0.187405647144 -1.301944642895 -0.374389091253 1.318734247885 -10.525221447670
1560738513.223170757294 0.002474245566 -0.129480385813 -1.305633593106 -0.486126137852 1.017371027314 -10.124371857921
1560738513.233170747757 -0.096826150128 -0.091234126902 -1.319573806314 0.048251474599 1.078513314806 -9.870661761456
1560738513.243170738220 -0.152444592408 -0.047787970272 -1.328636344060 -0.285421711388 1.054538159473 -10.278676688750
1560738513.253170728683 -0.183346630711 0.001197628421 -1.338805799116 -0.411409210887 1.172606647754 -10.533417049594
1560738513.263170719147 -0.167474166806 0.041743429454 -1.340862008513 -0.259344859689 1.540464729735 -10.438514567729
1560738513.273170709610 -0.119499826861 0.066787628800 -1.336778439115 -0.369794292000 0.860422316588 -9.883032766682
1560738513.283170700073 -0.130665012670 0.062407642611 -1.341066539803 0.237686363878 0.719069013798 -10.236962695756
1560738513.293170690536 -0.023656540593 0.065032525823 -1.362848980517 -0.325358887675 1.545560902931 -10.832768693128
1560738513.303170681000 0.047495485716 0.049216443529 -1.356651524320 -0.306059463023 0.990373395539 -10.555110318586
1560738513.313170671463 0.105857761979 0.022309354878 -1.364406199578 -0.377737284418 1.661308718561 -10.649879940972
1560738513.323170661926 0.152559083954 0.003239897842 -1.377128377182 -0.283103818524 0.975790961967 -10.150404217772
1560738513.333170652390 0.135693809796 -0.019881171225 -1.381363046644 -0.044363866117 1.013230477542 -10.287946356908
1560738513.343170642853 0.117341326523 -0.034814836507 -1.412503258627 -0.395247298572 1.040616945441 -10.910001702704
1560738513.353170633316 0.058610469863 -0.025502846156 -1.418384352532 -0.576801321730 1.247987231057 -10.419577915622
1560738513.363170623779 0.038218193260 -0.023054164825 -1.407812206106 -0.218347939147 1.107532130266 -10.236857983109
1560738513.373170614243 0.015646179871 -0.021231738513 -1.416050593273 -0.242253239328 0.863009570786 -10.080664467750
1560738513.383170604706 -0.004093806596 -0.016774752915 -1.412800813564 -0.233690634325 1.182638274648 -10.206184596650
1560738513.393170595169 0.025917080234 -0.013456255441 -1.415998311709 -0.385465462491 1.391799902242 -10.837272785055
1560738513.403170585632 0.065687043436 0.010471218866 -1.400724747525 -0.530448751061 1.091481136202 -9.982419635357
1560738513.413170576096 0.068610811224 0.007899254938 -1.406570523633 -0.208054283716 0.991230876325 -9.910336872109
1560738513.423170566559 0.086776038269 0.014521953792 -1.427283427033 -0.206462586442 1.143908551953 -10.370312781976
1560738513.433170557022 0.112451973700 0.025301283067 -1.429103038171 -0.320748639631 1.270005904413 -10.312627052348
1560738513.443170547485 0.152892296352 0.033285828021 -1.427634012794 -0.337280003611 1.348066612447 -10.510289387632
1560738513.453170537949 0.206474134499 0.053074288025 -1.431398568617 -0.334427698226 1.270540803998 -10.253985701067
1560738513.463170528412 0.239802094348 0.063575281161 -1.417059828538 -0.100865019287 0.935847455631 -9.742397511111
1560738513.473170518875 0.251733112390 0.076018467688 -1.442296388458 -0.134771005906 1.146918083711 -10.419166709016
1560738513.483170509338 0.288406400653 0.122401893890 -1.445939877086 -0.498927204640 1.302479137059 -10.847299596726
1560738513.493170499802 0.307683856767 0.168936298570 -1.439893466948 -0.364823984312 1.282302208926 -10.290818166633
1560738513.503170490265 0.322013061611 0.215494170872 -1.437661394135 -0.220209981419 0.951729016844 -10.203440124552
1560738513.513170480728 0.302523608505 0.264720938010 -1.452838598998 -0.225098839503 0.946189289526 -10.426502498008
1560738513.523170471191 0.269890431645 0.315129518648 -1.457820614392 -0.235635351338 1.164214639675 -10.443473676483
1560738513.533170461655 0.274349703151 0.366753716908 -1.491383703560 -0.464810498737 1.471525190748 -10.715807404283
1560738513.543170452118 0.306692866525 0.401746981278 -1.515741552662 -0.540617216959 0.831334425510 -10.426401314462
1560738513.553170442581 0.297596818582 0.415455146637 -1.522562170261 -0.221203240157 1.443366506482 -9.855001540801
1560738513.563170433044 0.328644762075 0.412647511425 -1.529821809532 -0.143096312146 0.912053182429 -10.435266525943
1560738513.573170423508 0.344201188169 0.397679995820 -1.531985204586 -0.387446718087 1.284159125288 -10.684074692455
1560738513.583170413971 0.351635700573 0.366970905373 -1.525574359811 -0.467877687906 1.156246743844 -10.243674957040
1560738513.593170404434 0.358521311648 0.320586124845 -1.532998455498 -0.200034880657 1.176293740749 -10.232639559547
1560738513.603170394897 0.366778834215 0.282255790735 -1.537790769042 -0.266692542388 0.980325920269 -10.086227691213
1560738513.613170385361 0.328316877228 0.240393029980 -1.545084347853 -0.110484517240 0.874536784177 -10.082254717014
1560738513.623170375824 0.294936225323 0.195085575467 -1.556806747392 -0.223063226783 1.204645187884 -10.746720593804
1560738513.633170366287 0.250536506582 0.173242949531 -1.568329676219 -0.656963351370 1.134313194095 -10.681349676534
1560738513.643170356750 0.200618030741 0.156718568489 -1.548768478615 -0.318418373834 1.068991038963 -10.045248199421
1560738513.653170347214 0.141316227690 0.139060428583 -1.560084011658 -0.216363347645 0.832373627709 -10.204649029818
1560738513.663170337677 0.071175690602 0.131556836509 -1.558051656867 -0.300108004321 1.010029121231 -10.130367047354
1560738513.673170328140 0.015710826455 0.122962170549 -1.569847073214 -0.408851443893 1.119038114160 -10.777962132448
1560738513.683170318604 -0.014474785919 0.135449629630 -1.553440173271 -0.480208093218 1.274564190241 -10.300060608303
1560738513.693170309067 -0.027977895524 0.131968218763 -1.541516853319 -0.218051560631 0.924759609130 -9.866990621329
1560738513.703170299530 -0.017420916871 0.120757428136 -1.552004576288 -0.221196572303 1.195479151979 -10.440671237494
1560738513.713170289993 0.008657876445 0.128939276851 -1.533025462473 -0.457084534009 1.286594711970 -10.455072846722
1560738513.723170280457 0.021729403793 0.121574042844 -1.514948692229 -0.301323585806 1.167081420874 -10.301578608631
1560738513.733170270920 0.089342351906 0.144157189568 -1.509554727702 -0.398507387088 1.272487561368 -10.232128825159
1560738513.743170261383 0.141814209889 0.141033618093 -1.497170970598 -0.162460932439 1.069081561015 -9.824259054212
1560738513.753170251846 0.178492976087 0.128785137799 -1.483067911963 -0.155887043681 1.119605029956 -10.185326663232
1560738513.763170242310 0.208153259222 0.145079281273 -1.483354553243 -0.580477265569 1.334665814715 -10.923605820336
1560738513.773170232773 0.230251209901 0.156168621799 -1.490463789473 -0.410026506929 1.353779945751 -10.441254437417
1560738513.783170223236 0.211571639648 0.145098018898 -1.476173435046 -0.169315296226 0.864804506550 -9.602235204743
1560738513.793170213699 0.191972138784 0.142748945753 -1.464125756214 -0.113360654108 0.776364837914 -9.939288686303
1560738513.803170204163 0.105881658376 0.157518538334 -1.482401566244 -0.653665643410 1.309210389377 -11.054044883533
1560738513.813170194626 0.034490099033 0.172421825956 -1.458438132839 -0.480271719260 1.096680516316 -10.450859046053
1560738513.823170185089 -0.067936394335 0.168055226887 -1.437019651017 -0.308393971818 0.798250551883 -10.158130831015
1560738513.833170175552 -0.183411986052 0.151613573132 -1.454727360225 -0.283353466493 0.982060024962 -10.604184191375
1560738513.843170166016 -0.256537027707 0.145806728063 -1.444876520906 -0.543964163235 1.131042631698 -10.464255855073
1560738513.853170156479 -0.291215037224 0.153202378993 -1.401153840347 -0.338610496447 1.370924478524 -10.334359067158
1560738513.863170146942 -0.247454116759 0.155600430126 -1.379471849849 -0.294859501213 1.149210208241 -10.164788010061
1560738513.873170137405 -0.197197128922 0.147992373209 -1.368119918326 -0.196734822199 1.182412761788 -10.019973166674
1560738513.883170127869 -0.132162582324 0.155463063857 -1.339963504157 -0.370470292367 1.358852580201 -10.346032249246
1560738513.893170118332 -0.029183470993 0.181818514322 -1.309998722053 -0.655449788797 1.457119880322 -10.649282471192
1560738513.903170108795 0.068059217073 0.204175163249 -1.307813683032 -0.361531832218 1.534914355489 -10.129812681679
1560738513.913170099258 0.136393857060 0.207123066632 -1.294600190845 -0.137698744387 0.984715281278 -10.092186383263
1560738513.923170089722 0.147318196069 0.205009838995 -1.276670761109 -0.329428260565 0.820079497160 -10.639754278908
1560738513.933170080185 0.134569900920 0.222276797849 -1.258025939848 -0.699636173269 1.561961777469 -10.608217273967
1560738513.943170070648 0.190915688651 0.224291198981 -1.233201234130 -0.402935644166 0.864472606176 -10.286493479788
1560738513.953170061111 0.210214843651 0.229720793036 -1.205142865702 -0.215655434704 1.350801751005 -10.151637818962
1560738513.963170051575 0.246856535854 0.237232460181 -1.181021921805 -0.512667966806 1.089563423911 -10.385663744532
1560738513.973170042038 0.280899305943 0.254121011168 -1.150316248235 -0.671534832982 1.254301733929 -10.415772625608
1560738513.983170032501 0.302852666289 0.269307033106 -1.124654211248 -0.490625287008 1.061650132694 -10.352925155571
1560738513.993170022964 0.287864418102 0.277507469472 -1.114809685226 -0.359992643701 1.421032109220 -10.729064906715
1560738514.003170013428 0.325055251307 0.304360620195 -1.085538425676 -0.638293072392 1.276763015064 -10.489895772677
1560738514.013170003891 0.321587218576 0.305476113850 -1.062023945507 -0.127386467987 1.269132180372 -9.887371823661
1560738514.023169994354 0.312419449260 0.294353768559 -1.042316575896 -0.322761924175 0.960822010473 -10.110186241805
1560738514.033169984818 0.297383972127 0.307079669893 -1.036771365540 -0.786243087580 1.284553976813 -10.973251970965
1560738514.043169975281 0.266743870674 0.316179819896 -1.019053712562 -0.318332806450 1.603768944013 -10.220549065947
1560738514.053169965744 0.220443252354 0.295913611153 -0.988161120218 0.015209229320 0.947944106332 -9.652881136994
1560738514.063169956207 0.188874799429 0.307056602622 -0.972705676339 -0.713788513680 0.949235186822 -10.449306402172
1560738514.073169946671 0.172872153031 0.335828152421 -0.968736788142 -0.849510491815 1.716718976873 -11.219457328285
1560738514.083169937134 0.150252180457 0.377134958397 -0.936949925652 -0.078676232064 1.074061798835 -9.862478143917
1560738514.093169927597 0.108625250888 0.394003997292 -0.914826350039 -0.417150555895 1.034731891703 -10.355511144094
1560738514.103169918060 0.068344537152 0.412398478893 -0.899780449353 -0.773187936397 1.259737473020 -10.871748091533
1560738514.113169908524 0.031476436718 0.431388936327 -0.878577881517 -0.445911696049 1.162018773522 -10.596966033204
1560738514.123169898987 0.017550058647 0.428234427651 -0.854793344735 -0.326388197154 1.613115112758 -10.740817673280
1560738514.133169889450 0.043155937432 0.432664444084 -0.835359032098 -0.614842620373 1.451308597536 -10.575903574402
1560738514.143169879913 0.087759180973 0.419010532298 -0.809662091125 -0.156004440402 1.408013826976 -10.182059280323
1560738514.153169870377 0.127468045773 0.403586494689 -0.792757028194 -0.441690907265 1.041916749517 -10.273081112625
1560738514.163169860840 0.159412986866 0.393089369647 -0.789094429443 -0.663882958189 1.588069974636 -10.824750744862
1560738514.173169851303 0.204893612273 0.369176967498 -0.772156306764 -0.428129904459 1.536769283021 -10.347640257470
1560738514.183169841766 0.222426330313 0.342708313417 -0.754260905549 -0.027062174635 0.995620137344 -9.395549093238
1560738514.193169832230 0.217994523304 0.316830650033 -0.747742945253 -0.343293214967 1.157258300900 -9.898746360129
1560738514.203169822693 0.209972407672 0.302092123365 -0.735703447737 -0.694657534677 1.322399844746 -10.809131582968
1560738514.213169813156 0.177795777580 0.295252604945 -0.732819223805 -0.452748459429 1.406074975393 -10.372503289397
1560738514.223169803619 0.135551909093 0.277329399135 -0.714953809179 -0.037269662549 1.322944985633 -9.544107404037
1560738514.233169794083 0.035433059957 0.250592952658 -0.704001655561 -0.658329015462 1.046184612774 -10.866541369034
1560738514.243169784546 -0.011037587618 0.246241009337 -0.697361868981 -0.768902373654 1.562590359100 -11.216374379561
1560738514.253169775009 -0.065514908272 0.212142108075 -0.691880100516 -0.057567469541 1.514115873726 -9.838277733090
1560738514.263169765472 -0.088117113744 0.165393337746 -0.671016177081 -0.270735423581 1.117701820232 -9.879674118388
1560738514.273169755936 -0.098377223694 0.152978726568 -0.664595483136 -0.637098579945 1.265668852338 -10.631835733501
1560738514.283169746399 -0.091043077329 0.139933434324 -0.659286648223 -0.543339660072 1.893625319550 -10.695482881476
1560738514.293169736862 -0.100491199497 0.111894500768 -0.653434558823 -0.189117592586 1.164971439345 -9.504913133901
1560738514.303169727325 -0.096755897858 0.094096242493 -0.635078714247 -0.443600845363 1.163835307395 -10.268870384328
1560738514.313169717789 -0.091606035740 0.098495680856 -0.632559808532 -0.920549825292 1.433350807113 -10.943774406368
1560738514.323169708252 -0.086338768776 0.107212451495 -0.624276879592 -0.446968384370 1.598339131345 -10.304691703708
1560738514.333169698715 -0.066818974412 0.107974449707 -0.613351686976 -0.272517854675 1.307596453970 -9.822540554429
1560738514.343169689178 -0.042685422901 0.102620794900 -0.609178917816 -0.544561161732 1.301510204915 -10.431608090757
1560738514.353169679642 -0.017562638154 0.116179774171 -0.595663315474 -0.783806016599 1.750165625253 -10.897060845537
1560738514.363169670105 0.009076829655 0.117343663736 -0.591946056353 -0.540959762914 1.666845254728 -10.495258562661
1560738514.373169660568 0.009322145613 0.093778790064 -0.602846630476 -0.055585937209 1.228695647924 -10.143524674953
1560738514.383169651031 0.002657241356 0.084005298598 -0.610918682991 -0.505514063919 1.499376519383 -10.343366655527
1560738514.393169641495 -0.005164162366 0.082015074284 -0.604592116572 -0.660675102118 1.359704109117 -10.656234358171
1560738514.403169631958 -0.014307049753 0.070815576998 -0.593469070620 -0.385513941175 2.057130192429 -10.169791800208
1560738514.413169622421 0.023697143752 0.066152723132 -0.601337893522 -0.231698468419 0.819384303750 -9.861405523518
1560738514.423169612885 -0.037216353214 0.051782006225 -0.610408575727 -0.343819219913 1.485124938118 -10.158522639970
1560738514.433169603348 -0.056462564485 0.061929313377 -0.600120303766 -0.744940548362 1.464253521807 -10.609850388595
1560738514.443169593811 -0.079534313816 0.074806704710 -0.603058119929 -0.465696252185 1.558098685542 -10.279862953757
1560738514.453169584274 -0.103791825642 0.080178675960 -0.607250827108 -0.214358027490 1.363599717271 -10.076753955303
1560738514.463169574738 -0.149837972739 0.080838279234 -0.605387154646 -0.496312596214 1.222613171132 -10.527995153872
1560738514.473169565201 -0.171064284120 0.106006008106 -0.594142386156 -0.719874255398 1.882044672862 -10.990657742423
1560738514.483169555664 -0.153169474122 0.125160596139 -0.598520234337 -0.621102656807 1.635591079328 -10.587664517743
1560738514.493169546127 -0.142065125190 0.121791958639 -0.600243810749 -0.082334173774 1.521787208414 -10.033505708413
1560738514.503169536591 -0.128106847534 0.113951417173 -0.587445704467 -0.207964673422 1.618276389909 -9.964203714364
1560738514.513169527054 -0.076615799232 0.127663270261 -0.592757617657 -0.699866239723 1.674724134143 -10.704057464955
1560738514.523169517517 -0.035380867171 0.132652707001 -0.596067514934 -0.566588904095 1.891755833376 -10.455681907803
1560738514.533169507980 0.003761005385 0.128251813494 -0.591501212431 -0.095065352145 1.651647587086 -9.642607156956
1560738514.543169498444 0.042131316941 0.123629355312 -0.590251960940 -0.185268258038 1.413799097327 -9.692826487748
1560738514.553169488907 0.061169460803 0.126115527420 -0.599535003558 -0.540128167200 1.490688091345 -10.485106558650
1560738514.563169479370 0.062641844697 0.140585469808 -0.600356330704 -0.697592889920 1.969577117377 -10.564034174690
1560738514.573169469833 0.060233856056 0.150181153259 -0.597648235385 -0.275255300780 1.286605730506 -10.060927063396
1560738514.583169460297 -0.004119145669 0.158402614347 -0.610493977108 -0.159810727254 1.420101402534 -9.969142847103
1560738514.593169450760 -0.054397615755 0.173832503075 -0.601728742652 -0.442043846960 1.412273291574 -10.532299774304
1560738514.603169441223 -0.093900232270 0.190664268146 -0.586805632469 -0.728219046288 1.844843418402 -10.842046831804
1560738514.613169431686 -0.117849335779 0.207827157924 -0.596145957654 -0.472938657885 1.663956955904 -10.355112162156
1560738514.623169422150 -0.166459856646 0.200475783684 -0.602391532076 -0.071180997592 1.508109735991 -10.180340894165
1560738514.633169412613 -0.160923570863 0.206013727384 -0.586834228699 -0.460415574914 1.675351445072 -10.475378274729
1560738514.643169403076 -0.130847668052 0.232629422890 -0.583754598707 -0.676162865152 1.964368892649 -10.715815354125
1560738514.653169393539 -0.068626459476 0.247794840344 -0.576009905723 -0.453214617011 1.925007094279 -10.164193953145
1560738514.663169384003 -0.011533754542 0.253282314416 -0.573976517953 -0.147030060477 1.590653670203 -9.579664751426
1560738514.673169374466 0.035417710472 0.258497657603 -0.572597378291 -0.214169452995 1.624017683453 -9.875661680652
1560738514.683169364929 0.071787162438 0.265955577027 -0.574371248021 -0.619907170874 1.888304938478 -10.551525665969
1560738514.693169355392 0.076010357113 0.266829397755 -0.574829988618 -0.621998591553 1.622688627188 -10.598765282714
1560738514.703169345856 0.023765271066 0.229237166382 -0.587677548211 -0.149521388663 1.715715450200 -10.142021597143
1560738514.713169336319 0.002460168651 0.186091584439 -0.577738362502 -0.082948704673 1.530389202182 -9.848402272455
1560738514.723169326782 0.044351749577 0.148085856481 -0.567061466707 -0.548599923815 1.497979838867 -10.231006290825
1560738514.733169317245 0.110706862616 0.139809573304 -0.545852074208 -0.714605284050 2.340367952062 -10.601366210034
1560738514.743169307709 0.226187577755 0.149271694383 -0.520863243329 -0.608927907641 1.841276057505 -10.114059480324
1560738514.753169298172 0.299990751644 0.150780387669 -0.520386653015 -0.144467429107 1.795643471833 -9.810233126276
1560738514.763169288635 0.313992388828 0.148569668234 -0.531542559924 -0.226255885480 1.526695085388 -10.433824696514
1560738514.773169279099 0.279543771761 0.151447428634 -0.532281025837 -0.567411089415 1.879638494090 -10.895589432613
1560738514.783169269562 0.274893872784 0.169261071405 -0.528799341856 -0.644589324408 2.118711037727 -10.550546808979
1560738514.793169260025 0.265035961415 0.179411322880 -0.540075861844 -0.323066853874 1.547052149695 -9.930169929038
1560738514.803169250488 0.239573665968 0.178708546393 -0.543620606084 -0.101847394633 1.834575889108 -9.639209068728
1560738514.813169240952 0.196189414004 0.199464726651 -0.541260443444 -0.509082649609 1.386028895883 -9.953683486761
1560738514.823169231415 0.142235490555 0.214028330530 -0.535856589714 -0.611223218017 2.132339107708 -9.948915560617
1560738514.833169221878 0.138687884807 0.222291934357 -0.526132646141 -0.386488107352 1.659050810396 -9.870368690106
1560738514.843169212341 0.141169463819 0.228719500532 -0.517893420792 -0.495184932695 2.075046420842 -9.988737725244
1560738514.853169202805 0.176740744987 0.253011521909 -0.502014698263 -0.622632498554 1.757367222652 -10.010955986964
1560738514.863169193268 0.190226735412 0.255366998280 -0.509419959246 -0.393410452557 1.986190132272 -10.026326961856
1560738514.873169183731 0.214799447075 0.251185917318 -0.497536388803 -0.546519997828 1.620755457118 -10.335772675142
1560738514.883169174194 0.192133491491 0.239501591774 -0.515902685133 -0.474059369088 2.261332533536 -10.611500783897
1560738514.893169164658 0.189992506798 0.223531203598 -0.509921997015 -0.448925772382 2.062438714448 -10.560469096252
1560738514.903169155121 0.135509843527 0.174570856079 -0.511909304619 -0.224453042884 1.706078704960 -9.387519413088
1560738514.913169145584 0.128150791224 0.133640678346 -0.504690152413 -0.370739787396 1.597578259306 -9.642074333017
1560738514.923169136047 0.095500973563 0.105258376240 -0.509516061460 -0.528225185943 1.848166686028 -10.382694787259
1560738514.933169126511 0.091245882164 0.092029025041 -0.485057678437 -0.642869106273 2.200640031587 -10.129154200175
1560738514.943169116974 0.068522394016 0.082166114134 -0.485996614375 -0.415132246233 1.767715316848 -9.593770308240
1560738514.953169107437 0.042705314186 0.069274418601 -0.484269111795 -0.311446064117 1.912094943140 -9.841753547800
1560738514.963169097900 0.071068770610 0.098142531802 -0.462017353759 -0.798674897704 2.007164380858 -10.514656470809
1560738514.973169088364 0.099097753112 0.134125564452 -0.470473008849 -0.737496877658 2.312708244114 -10.421405752516
1560738514.983169078827 0.146497538528 0.138511861552 -0.456044675118 -0.093750893051 2.006602554805 -9.058707712862
1560738514.993169069290 0.207195480497 0.158836943454 -0.442741347669 -0.365360186933 1.824758741979 -9.325114044644
1560738515.003169059753 0.264753616132 0.180021095784 -0.445176002541 -0.515682493857 2.222886573787 -10.170568501213
1560738515.013169050217 0.282007529104 0.201441691663 -0.439756297583 -0.614979162581 1.948821772627 -10.225281249304
1560738515.023169040680 0.257679038614 0.191473260552 -0.452552225137 -0.326306513739 1.947881539715 -9.975289718635
1560738515.033169031143 0.240399770748 0.178264148060 -0.446432737590 -0.491927924200 1.842627062436 -10.034935507525
1560738515.043169021606 0.249095728301 0.166495465567 -0.420255781201 -0.452389647466 2.402373293183 -9.836961787609
1560738515.053169012070 0.276108559314 0.147878106175 -0.404659123492 -0.438147669170 1.747594914486 -9.582614548760
1560738515.063169002533 0.270026470559 0.123351644293 -0.411198679115 -0.437687832708 2.200111604461 -10.047059755294
1560738515.073168992996 0.290505895478 0.121683818510 -0.396781160769 -0.697474422065 1.902256157806 -10.516289046731
1560738515.083168983459 0.261468207670 0.118369736279 -0.387504818345 -0.249751748347 2.813146307631 -9.870956781202
1560738515.093168973923 0.333387510072 0.115409009737 -0.371477630728 -0.114028114209 1.800080568203 -8.899576086500
1560738515.103168964386 0.332758554412 0.116487476972 -0.357654850071 -0.615434045333 1.850909097321 -9.816328423158
1560738515.113168954849 0.327082896530 0.138473552246 -0.351117297362 -0.706160953100 2.333155853726 -10.143853036070
1560738515.123168945312 0.313858622881 0.153740731123 -0.349401426845 -0.255969852675 1.770571895018 -9.501857206084
1560738515.133168935776 0.288067327737 0.167549908854 -0.332313875692 -0.434992469657 2.391649301146 -9.540320381930
1560738515.143168926239 0.309395426968 0.195663512721 -0.320594287086 -0.727620637040 1.963671025670 -9.671749905687
1560738515.153168916702 0.301903440274 0.220159206545 -0.320308125349 -0.367611125788 2.059802720292 -9.607697625850
1560738515.163168907166 0.298084710418 0.239853032061 -0.303187615124 -0.701908064281 2.292003729792 -10.271614027980
1560738515.173168897629 0.294898791845 0.273427665001 -0.301218218498 -0.726382384591 2.156511664146 -10.294667623610
